url,meta,sender,sender_type,sender_id,page1text,page1emoji,page2text,page2emoji,page3text,page3emoji,page4text,page4emoji,page5text,page5emoji,page6text,page6emoji,page7text,page7emoji,page8text,page8emoji,page9text,page9emoji,page10text,page10emoji,page11text,page11emoji,page12text,page12emoji,page13text,page13emoji,page14text,page14emoji,page15text,page15emoji,page16text,page16emoji,page17text,page17emoji,page18text,page18emoji,page19text,page19emoji,page20text,page20emoji,page21text,page21emoji,page22text,page22emoji,page23text,page23emoji,page24text,page24emoji,questions,maxquestions,sex,age,,ended_on,duration,time_run,time_render,time_show,time_end,time_commit,timestamp,time_switch,openLabId,type,task,project,status,code,confirmationCode,i-have-received-written-information-about-the-purpose-and-methods-of-the-experiment-i-know-that-my-participation-is-voluntary-and-that-i-can-withdraw-from-the-experiment-at-any-time-without-having-to-give-a-reason-i-give-my-consent-to-participate-in-this-study-,what-is-your-sex,what-is-your-age-group,page6textanswer,how-much-do-you-agree-with-the-statement,page13emojianswer,page9textanswer,page18emojianswer,page8emojianswer,page12emojianswer,page19textanswer,page20textanswer,page18textanswer,page14emojianswer,page3emojianswer,page15textanswer,page16emojianswer,page1emojianswer,page1textanswer,page2textanswer,CK,page15emojianswer,page10emojianswer,page21emojianswer,page14textanswer,page22emojianswer,page11textanswer,page19emojianswer,page17emojianswer,page9emojianswer,page22textanswer,page7textanswer,page4emojianswer,page5textanswer,page12textanswer,page24textanswer,page20emojianswer,page8textanswer,page16textanswer,page23textanswer,page17textanswer,page11emojianswer,page24emojianswer,page7emojianswer,page4textanswer,page21textanswer,page23emojianswer,page6emojianswer,page2emojianswer,page5emojianswer,page3textanswer,page10textanswer,page13textanswer,totaltextanswers,totaltextscore,totalemojianswers,totalemojiscore,emojiscore,textscore
[object Object],"{""labjs_version"":""20.1.1"",""labjs_build"":{""flavor"":""production"",""commit"":""c48ac4ada3769e8d34489594ab03097d5f256ac7""},""location"":""https://open-lab.online/test/final-task---level-of-agreeance/5f993ecc0bbbdd5ca04d3bde?fbclid=IwAR1dvx42-WM83xvS0RuVgqAqy942dF76jhzdyJzkGSsoFJyamOLftcc_1kE"",""userAgent"":""Mozilla/5.0 (Macintosh; Intel Mac OS X 10_15_6) AppleWebKit/537.36 (KHTML, like Gecko) Chrome/86.0.4240.111 Safari/537.36"",""platform"":""MacIntel"",""language"":""da-DK"",""locale"":""da"",""timeZone"":""Europe/Copenhagen"",""timezoneOffset"":-60,""screen_width"":1440,""screen_height"":900,""scroll_width"":1393,""scroll_height"":741,""window_innerWidth"":1393,""window_innerHeight"":765,""devicePixelRatio"":2}",Information letter,html.Page,0,false,false,false,false,false,false,false,false,false,false,false,false,false,false,false,false,false,false,false,false,false,false,false,false,false,false,false,false,false,false,false,false,false,false,false,false,false,false,false,false,false,false,false,false,false,false,false,false,1,24,103,207,,form submission,1783.9470000025144,696.1750000482425,692.087,708.753,2492.7000000025146,2493.2100000442006,2020-10-28T09:50:06.776Z,2508.681,1603879466,full,final-task---level-of-agreeance,5f99360d0bbbdd5ca04d3b63,participant,hcpibiaokgt7wq5y,217841,,,,,,,,,,,,,,,,,,,,,,,,,,,,,,,,,,,,,,,,,,,,,,,,,,,,,,,,,,,
,,Informed consent,html.Page,1,false,false,false,false,false,false,false,false,false,false,false,false,false,false,false,false,false,false,false,false,false,false,false,false,false,false,false,false,false,false,false,false,false,false,false,false,false,false,false,false,false,false,false,false,false,false,false,false,1,24,100,100,,form submission,3059.9140000188313,2493.6650000163354,2492.015,2508.681,5568.595000018831,5568.8800000352785,2020-10-28T09:50:09.851Z,5593.026,1603879466,full,final-task---level-of-agreeance,5f99360d0bbbdd5ca04d3b63,participant,hcpibiaokgt7wq5y,,undefined,,,,,,,,,,,,,,,,,,,,,,,,,,,,,,,,,,,,,,,,,,,,,,,,,,,,,,,,,,
,,Questions about participant,html.Page,2,false,false,false,false,false,false,false,false,false,false,false,false,false,false,false,false,false,false,false,false,false,false,false,false,false,false,false,false,false,false,false,false,false,false,false,false,false,false,false,false,false,false,false,false,false,false,false,false,1,24,100,100,,form submission,7684.019000053477,5569.120000000112,5576.36,5593.026,13277.045000053477,13277.490000007674,2020-10-28T09:50:17.560Z,13292.718,1603879466,full,final-task---level-of-agreeance,5f99360d0bbbdd5ca04d3b63,participant,hcpibiaokgt7wq5y,,,102,201,,,,,,,,,,,,,,,,,,,,,,,,,,,,,,,,,,,,,,,,,,,,,,,,,,,,,,,,
,,Information about the experiment,html.Page,3,false,false,false,false,false,false,false,false,false,false,false,false,false,false,false,false,false,false,false,false,false,false,false,false,false,false,false,false,false,false,false,false,false,false,false,false,false,false,false,false,false,false,false,false,false,false,false,false,1,24,100,100,,form submission,19451.302000041927,13277.830000035465,13276.052,13292.718,32744.020000041928,32744.400000025053,2020-10-28T09:50:37.028Z,32838.325,1603879466,full,final-task---level-of-agreeance,5f99360d0bbbdd5ca04d3b63,participant,hcpibiaokgt7wq5y,,,,,,,,,,,,,,,,,,,,,,,,,,,,,,,,,,,,,,,,,,,,,,,,,,,,,,,,,,,,
,,Page6_text,html.Page,4_0,false,false,false,false,false,false,false,false,false,false,true,false,false,false,false,false,false,false,false,false,false,false,false,false,false,false,false,false,false,false,false,false,false,false,false,false,false,false,false,false,false,false,false,false,false,false,false,false,2,24,100,100,,form submission,23268.400000019654,32826.545000018086,32821.659,32838.325,56106.72500001965,56107.095000043046,2020-10-28T09:51:00.391Z,56202.756,1603879466,full,final-task---level-of-agreeance,5f99360d0bbbdd5ca04d3b63,participant,hcpibiaokgt7wq5y,,,,,7,6,,,,,,,,,,,,,,,,,,,,,,,,,,,,,,,,,,,,,,,,,,,,,,,,,,,,,,
,,Page13_emoji,html.Page,4_1,false,false,false,false,false,false,false,false,false,false,true,false,false,false,false,false,false,false,false,false,false,false,false,false,false,true,false,false,false,false,false,false,false,false,false,false,false,false,false,false,false,false,false,false,false,false,false,false,3,24,100,100,,form submission,28541.539000040437,56191.435000044294,56186.09,56202.756,84744.29500004044,84744.55500004115,2020-10-28T09:51:29.029Z,84825.54,1603879466,full,final-task---level-of-agreeance,5f99360d0bbbdd5ca04d3b63,participant,hcpibiaokgt7wq5y,,,,,7,7,7,,,,,,,,,,,,,,,,,,,,,,,,,,,,,,,,,,,,,,,,,,,,,,,,,,,,,
,,Page9_text,html.Page,4_2,false,false,false,false,false,false,false,false,false,false,true,false,false,false,false,false,true,false,false,false,false,false,false,false,false,true,false,false,false,false,false,false,false,false,false,false,false,false,false,false,false,false,false,false,false,false,false,false,4,24,100,100,,form submission,9064.655000043611,84812.91000003694,84808.874,84825.54,93890.1950000436,93890.63000003807,2020-10-28T09:51:38.175Z,93976.103,1603879466,full,final-task---level-of-agreeance,5f99360d0bbbdd5ca04d3b63,participant,hcpibiaokgt7wq5y,,,,,7,5,7,7,,,,,,,,,,,,,,,,,,,,,,,,,,,,,,,,,,,,,,,,,,,,,,,,,,,,
,,Page18_emoji,html.Page,4_3,false,false,false,false,false,false,false,false,false,false,true,false,false,false,false,false,true,false,false,false,false,false,false,false,false,true,false,false,false,false,false,false,false,false,false,true,false,false,false,false,false,false,false,false,false,false,false,false,5,24,100,100,,form submission,25740.17200001341,93964.7550000227,93959.437,93976.103,119716.27500001341,119716.6150000412,2020-10-28T09:52:04.002Z,119805.134,1603879466,full,final-task---level-of-agreeance,5f99360d0bbbdd5ca04d3b63,participant,hcpibiaokgt7wq5y,,,,,7,6,7,7,7,,,,,,,,,,,,,,,,,,,,,,,,,,,,,,,,,,,,,,,,,,,,,,,,,,,
,,Page8_emoji,html.Page,4_4,false,false,false,false,false,false,false,false,false,false,true,false,false,false,false,true,true,false,false,false,false,false,false,false,false,true,false,false,false,false,false,false,false,false,false,true,false,false,false,false,false,false,false,false,false,false,false,false,6,24,100,100,,form submission,10157.866000047026,119792.6350000198,119788.468,119805.134,129963.00000004703,129963.76000001328,2020-10-28T09:52:14.249Z,130048.781,1603879466,full,final-task---level-of-agreeance,5f99360d0bbbdd5ca04d3b63,participant,hcpibiaokgt7wq5y,,,,,7,6,7,7,7,7,,,,,,,,,,,,,,,,,,,,,,,,,,,,,,,,,,,,,,,,,,,,,,,,,,
,,Page12_emoji,html.Page,4_5,false,false,false,false,false,false,false,false,false,false,true,false,false,false,false,true,true,false,false,false,false,false,false,true,false,true,false,false,false,false,false,false,false,false,false,true,false,false,false,false,false,false,false,false,false,false,false,false,7,24,100,100,,form submission,15243.524000009944,130037.05500002252,130032.115,130048.781,145292.30500000995,145292.73500002455,2020-10-28T09:52:29.579Z,145367.028,1603879466,full,final-task---level-of-agreeance,5f99360d0bbbdd5ca04d3b63,participant,hcpibiaokgt7wq5y,,,,,7,5,7,7,7,7,7,,,,,,,,,,,,,,,,,,,,,,,,,,,,,,,,,,,,,,,,,,,,,,,,,
,,Page19_text,html.Page,4_6,false,false,false,false,false,false,false,false,false,false,true,false,false,false,false,true,true,false,false,false,false,false,false,true,false,true,false,false,false,false,false,false,false,false,false,true,true,false,false,false,false,false,false,false,false,false,false,false,8,24,100,100,,form submission,67269.83200002782,145353.34000003058,145350.362,145367.028,212636.8600000278,212637.87000003504,2020-10-28T09:53:36.925Z,212730.678,1603879466,full,final-task---level-of-agreeance,5f99360d0bbbdd5ca04d3b63,participant,hcpibiaokgt7wq5y,,,,,7,3,7,7,7,7,7,7,,,,,,,,,,,,,,,,,,,,,,,,,,,,,,,,,,,,,,,,,,,,,,,,
,,Page20_text,html.Page,4_7,false,false,false,false,false,false,false,false,false,false,true,false,false,false,false,true,true,false,false,false,false,false,false,true,false,true,false,false,false,false,false,false,false,false,false,true,true,false,true,false,false,false,false,false,false,false,false,false,9,24,100,100,,form submission,9669.627000017383,212717.85500005353,212714.012,212730.678,222400.3050000174,222400.57500003604,2020-10-28T09:53:46.688Z,222530.891,1603879466,full,final-task---level-of-agreeance,5f99360d0bbbdd5ca04d3b63,participant,hcpibiaokgt7wq5y,,,,,7,2,7,7,7,7,7,7,7,,,,,,,,,,,,,,,,,,,,,,,,,,,,,,,,,,,,,,,,,,,,,,,
,,Page18_text,html.Page,4_8,false,false,false,false,false,false,false,false,false,false,true,false,false,false,false,true,true,false,false,false,false,false,false,true,false,true,false,false,false,false,false,false,false,false,false,true,true,false,true,false,false,false,false,false,false,false,false,false,9,24,100,100,,skipped,,222466.6900000302,,,222400.3050000174,222467.02000004007,2020-10-28T09:53:46.755Z,222530.891,1603879466,full,final-task---level-of-agreeance,5f99360d0bbbdd5ca04d3b63,participant,hcpibiaokgt7wq5y,,,,,7,,7,7,7,7,7,7,7,7,,,,,,,,,,,,,,,,,,,,,,,,,,,,,,,,,,,,,,,,,,,,,,
,,Page14_emoji,html.Page,4_9,false,false,false,false,false,false,false,false,false,false,true,false,false,false,false,true,true,false,false,false,false,false,false,true,false,true,false,true,false,false,false,false,false,false,false,true,true,false,true,false,false,false,false,false,false,false,false,false,10,24,100,100,,form submission,16856.37400002667,222517.15500000864,222514.225,222530.891,239387.26500002667,239387.61000003433,2020-10-28T09:54:03.676Z,239478.71,1603879466,full,final-task---level-of-agreeance,5f99360d0bbbdd5ca04d3b63,participant,hcpibiaokgt7wq5y,,,,,7,1,7,7,7,7,7,7,7,7,7,,,,,,,,,,,,,,,,,,,,,,,,,,,,,,,,,,,,,,,,,,,,,
,,Page3_emoji,html.Page,4_10,false,false,false,false,false,true,false,false,false,false,true,false,false,false,false,true,true,false,false,false,false,false,false,true,false,true,false,true,false,false,false,false,false,false,false,true,true,false,true,false,false,false,false,false,false,false,false,false,11,24,100,100,,form submission,10248.380000000325,239465.79500002554,239462.044,239478.71,249727.09000000032,249727.5550000486,2020-10-28T09:54:14.016Z,249841.47,1603879466,full,final-task---level-of-agreeance,5f99360d0bbbdd5ca04d3b63,participant,hcpibiaokgt7wq5y,,,,,7,5,7,7,7,7,7,7,7,7,7,7,,,,,,,,,,,,,,,,,,,,,,,,,,,,,,,,,,,,,,,,,,,,
,,Page15_text,html.Page,4_11,false,false,false,false,false,true,false,false,false,false,true,false,false,false,false,true,true,false,false,false,false,false,false,true,false,true,false,true,true,false,false,false,false,false,false,true,true,false,true,false,false,false,false,false,false,false,false,false,12,24,100,100,,form submission,139888.93000000037,249831.60500001395,249824.804,249841.47,389730.4000000004,389730.7200000505,2020-10-28T09:56:34.022Z,389873.58,1603879466,full,final-task---level-of-agreeance,5f99360d0bbbdd5ca04d3b63,participant,hcpibiaokgt7wq5y,,,,,7,6,7,7,7,7,7,7,7,7,7,7,7,,,,,,,,,,,,,,,,,,,,,,,,,,,,,,,,,,,,,,,,,,,
,,Page16_emoji,html.Page,4_12,false,false,false,false,false,true,false,false,false,false,true,false,false,false,false,true,true,false,false,false,false,false,false,true,false,true,false,true,true,false,false,true,false,false,false,true,true,false,true,false,false,false,false,false,false,false,false,false,13,24,100,100,,form submission,457805.86000003625,389862.770000007,389856.914,389873.58,847679.4400000363,847679.9700000556,2020-10-28T10:04:11.983Z,847852.564,1603879466,full,final-task---level-of-agreeance,5f99360d0bbbdd5ca04d3b63,participant,hcpibiaokgt7wq5y,,,,,7,4,7,7,7,7,7,7,7,7,7,7,7,7,,,,,,,,,,,,,,,,,,,,,,,,,,,,,,,,,,,,,,,,,,
,,Page1_emoji,html.Page,4_13,false,true,false,false,false,true,false,false,false,false,true,false,false,false,false,true,true,false,false,false,false,false,false,true,false,true,false,true,true,false,false,true,false,false,false,true,true,false,true,false,false,false,false,false,false,false,false,false,14,24,100,100,,form submission,6869.876000041375,847839.5450000535,847835.898,847852.564,854722.4400000414,854722.8900000337,2020-10-28T10:04:19.026Z,854866.418,1603879466,full,final-task---level-of-agreeance,5f99360d0bbbdd5ca04d3b63,participant,hcpibiaokgt7wq5y,,,,,7,7,7,7,7,7,7,7,7,7,7,7,7,7,7,,,,,,,,,,,,,,,,,,,,,,,,,,,,,,,,,,,,,,,,,
,,Page1_text,html.Page,4_14,false,true,false,false,false,true,false,false,false,false,true,false,false,false,false,true,true,false,false,false,false,false,false,true,false,true,false,true,true,false,false,true,false,false,false,true,true,false,true,false,false,false,false,false,false,false,false,false,14,24,100,100,,skipped,,854803.3600000199,,,854722.4400000414,854803.7900000345,2020-10-28T10:04:19.107Z,854866.418,1603879466,full,final-task---level-of-agreeance,5f99360d0bbbdd5ca04d3b63,participant,hcpibiaokgt7wq5y,,,,,7,,7,7,7,7,7,7,7,7,7,7,7,7,7,7,,,,,,,,,,,,,,,,,,,,,,,,,,,,,,,,,,,,,,,,
,,Page2_text,html.Page,4_15,false,true,true,false,false,true,false,false,false,false,true,false,false,false,false,true,true,false,false,false,false,false,false,true,false,true,false,true,true,false,false,true,false,false,false,true,true,false,true,false,false,false,false,false,false,false,false,false,15,24,100,100,,form submission,6994.217000048258,854853.07500005,854849.752,854866.418,861860.6350000482,861861.2550000544,2020-10-28T10:04:26.164Z,862019.908,1603879466,full,final-task---level-of-agreeance,5f99360d0bbbdd5ca04d3b63,participant,hcpibiaokgt7wq5y,,,,,7,,7,7,7,7,7,7,7,7,7,7,7,7,7,7,7,5,,,,,,,,,,,,,,,,,,,,,,,,,,,,,,,,,,,,,,
,,Page15_emoji,html.Page,4_16,false,true,true,false,false,true,false,false,false,false,true,false,false,false,false,true,true,false,false,false,false,false,false,true,false,true,false,true,true,false,false,true,false,false,false,true,true,false,true,false,false,false,false,false,false,false,false,false,15,24,100,100,,skipped,,861942.8350000526,,,861860.6350000482,861943.0750000174,2020-10-28T10:04:26.246Z,862019.908,1603879466,full,final-task---level-of-agreeance,5f99360d0bbbdd5ca04d3b63,participant,hcpibiaokgt7wq5y,,,,,7,,7,7,7,7,7,7,7,7,7,7,7,7,7,7,7,,7,,,,,,,,,,,,,,,,,,,,,,,,,,,,,,,,,,,,,
,,Page10_emoji,html.Page,4_17,false,true,true,false,false,true,false,false,false,false,true,false,false,false,false,true,true,false,false,true,false,false,false,true,false,true,false,true,true,false,false,true,false,false,false,true,true,false,true,false,false,false,false,false,false,false,false,false,16,24,100,100,,form submission,23436.43700001319,862009.1000000248,862003.242,862019.908,885456.3450000132,885456.6700000432,2020-10-28T10:04:49.760Z,885784.54,1603879466,full,final-task---level-of-agreeance,5f99360d0bbbdd5ca04d3b63,participant,hcpibiaokgt7wq5y,,,,,7,6,7,7,7,7,7,7,7,7,7,7,7,7,7,7,7,,7,7,,,,,,,,,,,,,,,,,,,,,,,,,,,,,,,,,,,,
,,Page21_emoji,html.Page,4_18,false,true,true,false,false,true,false,false,false,false,true,false,false,false,false,true,true,false,false,true,false,false,false,true,false,true,false,true,true,false,false,true,false,false,false,true,true,false,true,false,false,true,false,false,false,false,false,false,17,24,100,100,,form submission,51390.37500003958,885773.5400000238,885767.874,885784.54,937174.9150000396,937175.3400000161,2020-10-28T10:05:41.480Z,937344.011,1603879466,full,final-task---level-of-agreeance,5f99360d0bbbdd5ca04d3b63,participant,hcpibiaokgt7wq5y,,,,,7,7,7,7,7,7,7,7,7,7,7,7,7,7,7,7,7,,7,7,7,,,,,,,,,,,,,,,,,,,,,,,,,,,,,,,,,,,
,,Page14_text,html.Page,4_19,false,true,true,false,false,true,false,false,false,false,true,false,false,false,false,true,true,false,false,true,false,false,false,true,false,true,false,true,true,false,false,true,false,false,false,true,true,false,true,false,false,true,false,false,false,false,false,false,17,24,100,100,,skipped,,937265.475000022,,,937174.9150000396,937266.025000019,2020-10-28T10:05:41.571Z,937344.011,1603879466,full,final-task---level-of-agreeance,5f99360d0bbbdd5ca04d3b63,participant,hcpibiaokgt7wq5y,,,,,7,,7,7,7,7,7,7,7,7,7,7,7,7,7,7,7,,7,7,7,7,,,,,,,,,,,,,,,,,,,,,,,,,,,,,,,,,,
,,Page22_emoji,html.Page,4_20,false,true,true,false,false,true,false,false,false,false,true,false,false,false,false,true,true,false,false,true,false,false,false,true,false,true,false,true,true,false,false,true,false,false,false,true,true,false,true,false,false,true,false,true,false,false,false,false,18,24,100,100,,form submission,19922.384000042337,937332.9800000065,937327.345,937344.011,957266.3950000424,957266.7200000142,2020-10-28T10:06:01.572Z,957361.478,1603879466,full,final-task---level-of-agreeance,5f99360d0bbbdd5ca04d3b63,participant,hcpibiaokgt7wq5y,,,,,7,6,7,7,7,7,7,7,7,7,7,7,7,7,7,7,7,,7,7,7,7,7,,,,,,,,,,,,,,,,,,,,,,,,,,,,,,,,,
,,Page11_text,html.Page,4_21,false,true,true,false,false,true,false,false,false,false,true,false,false,false,false,true,true,false,false,true,true,false,false,true,false,true,false,true,true,false,false,true,false,false,false,true,true,false,true,false,false,true,false,true,false,false,false,false,19,24,100,100,,form submission,44944.28700005554,957349.2300000507,957344.812,957361.478,1002305.7650000555,1002306.1300000409,2020-10-28T10:06:46.613Z,1002474.533,1603879466,full,final-task---level-of-agreeance,5f99360d0bbbdd5ca04d3b63,participant,hcpibiaokgt7wq5y,,,,,7,5,7,7,7,7,7,7,7,7,7,7,7,7,7,7,7,,7,7,7,7,7,7,,,,,,,,,,,,,,,,,,,,,,,,,,,,,,,,
,,Page19_emoji,html.Page,4_22,false,true,true,false,false,true,false,false,false,false,true,false,false,false,false,true,true,false,false,true,true,false,false,true,false,true,false,true,true,false,false,true,false,false,false,true,true,false,true,false,false,true,false,true,false,false,false,false,19,24,100,100,,skipped,,1002393.9050000045,,,1002305.7650000555,1002394.335000019,2020-10-28T10:06:46.701Z,1002474.533,1603879466,full,final-task---level-of-agreeance,5f99360d0bbbdd5ca04d3b63,participant,hcpibiaokgt7wq5y,,,,,7,,7,7,7,7,7,7,7,7,7,7,7,7,7,7,7,,7,7,7,7,7,7,7,,,,,,,,,,,,,,,,,,,,,,,,,,,,,,,
,,Page17_emoji,html.Page,4_23,false,true,true,false,false,true,false,false,false,false,true,false,false,false,false,true,true,false,false,true,true,false,false,true,false,true,false,true,true,false,false,true,false,true,false,true,true,false,true,false,false,true,false,true,false,false,false,false,20,24,100,100,,form submission,8424.69200000097,1002462.7300000284,1002457.867,1002474.533,1010899.225000001,1010899.5950000244,2020-10-28T10:06:55.206Z,1011115.178,1603879466,full,final-task---level-of-agreeance,5f99360d0bbbdd5ca04d3b63,participant,hcpibiaokgt7wq5y,,,,,7,6,7,7,7,7,7,7,7,7,7,7,7,7,7,7,7,,7,7,7,7,7,7,7,7,,,,,,,,,,,,,,,,,,,,,,,,,,,,,,
,,Page9_emoji,html.Page,4_24,false,true,true,false,false,true,false,false,false,false,true,false,false,false,false,true,true,false,false,true,true,false,false,true,false,true,false,true,true,false,false,true,false,true,false,true,true,false,true,false,false,true,false,true,false,false,false,false,20,24,100,100,,skipped,,1010969.3400000106,,,1010899.225000001,1010969.7700000252,2020-10-28T10:06:55.277Z,1011115.178,1603879466,full,final-task---level-of-agreeance,5f99360d0bbbdd5ca04d3b63,participant,hcpibiaokgt7wq5y,,,,,7,,7,7,7,7,7,7,7,7,7,7,7,7,7,7,7,,7,7,7,7,7,7,7,7,7,,,,,,,,,,,,,,,,,,,,,,,,,,,,,
,,Page22_text,html.Page,4_25,false,true,true,false,false,true,false,false,false,false,true,false,false,false,false,true,true,false,false,true,true,false,false,true,false,true,false,true,true,false,false,true,false,true,false,true,true,false,true,false,false,true,false,true,false,false,false,false,20,24,100,100,,skipped,,1011037.9150000517,,,1010899.225000001,1011038.3350000484,2020-10-28T10:06:55.345Z,1011115.178,1603879466,full,final-task---level-of-agreeance,5f99360d0bbbdd5ca04d3b63,participant,hcpibiaokgt7wq5y,,,,,7,,7,7,7,7,7,7,7,7,7,7,7,7,7,7,7,,7,7,7,7,7,7,7,7,7,7,,,,,,,,,,,,,,,,,,,,,,,,,,,,
,,Page7_text,html.Page,4_26,false,true,true,false,false,true,false,false,false,false,true,false,true,false,false,true,true,false,false,true,true,false,false,true,false,true,false,true,true,false,false,true,false,true,false,true,true,false,true,false,false,true,false,true,false,false,false,false,21,24,100,100,,form submission,14416.86699999997,1011102.3000000278,1011098.512,1011115.178,1025532.0449999999,1025532.4850000325,2020-10-28T10:07:09.840Z,1025618.95,1603879466,full,final-task---level-of-agreeance,5f99360d0bbbdd5ca04d3b63,participant,hcpibiaokgt7wq5y,,,,,7,4,7,7,7,7,7,7,7,7,7,7,7,7,7,7,7,,7,7,7,7,7,7,7,7,7,7,7,,,,,,,,,,,,,,,,,,,,,,,,,,,
,,Page4_emoji,html.Page,4_27,false,true,true,false,false,true,false,true,false,false,true,false,true,false,false,true,true,false,false,true,true,false,false,true,false,true,false,true,true,false,false,true,false,true,false,true,true,false,true,false,false,true,false,true,false,false,false,false,22,24,100,100,,form submission,12453.65000001411,1025606.1350000091,1025602.284,1025618.95,1038072.6000000141,1038073.1350000133,2020-10-28T10:07:22.381Z,1038160.172,1603879466,full,final-task---level-of-agreeance,5f99360d0bbbdd5ca04d3b63,participant,hcpibiaokgt7wq5y,,,,,7,2,7,7,7,7,7,7,7,7,7,7,7,7,7,7,7,,7,7,7,7,7,7,7,7,7,7,7,7,,,,,,,,,,,,,,,,,,,,,,,,,,
,,Page5_text,html.Page,4_28,false,true,true,false,false,true,false,true,true,false,true,false,true,false,false,true,true,false,false,true,true,false,false,true,false,true,false,true,true,false,false,true,false,true,false,true,true,false,true,false,false,true,false,true,false,false,false,false,23,24,100,100,,form submission,6740.238000001991,1038147.7700000396,1038143.506,1038160.172,1044900.410000002,1044900.7500000298,2020-10-28T10:07:29.208Z,1045059.896,1603879466,full,final-task---level-of-agreeance,5f99360d0bbbdd5ca04d3b63,participant,hcpibiaokgt7wq5y,,,,,7,5,7,7,7,7,7,7,7,7,7,7,7,7,7,7,7,,7,7,7,7,7,7,7,7,7,7,7,7,7,,,,,,,,,,,,,,,,,,,,,,,,,
,,Page12_text,html.Page,4_29,false,true,true,false,false,true,false,true,true,false,true,false,true,false,false,true,true,false,false,true,true,false,false,true,false,true,false,true,true,false,false,true,false,true,false,true,true,false,true,false,false,true,false,true,false,false,false,false,23,24,100,100,,skipped,,1044982.2000000277,,,1044900.410000002,1044982.6500000199,2020-10-28T10:07:29.290Z,1045059.896,1603879466,full,final-task---level-of-agreeance,5f99360d0bbbdd5ca04d3b63,participant,hcpibiaokgt7wq5y,,,,,7,,7,7,7,7,7,7,7,7,7,7,7,7,7,7,7,,7,7,7,7,7,7,7,7,7,7,7,7,7,7,,,,,,,,,,,,,,,,,,,,,,,,
,,Page24_text,html.Page,4_30,false,true,true,false,false,true,false,true,true,false,true,false,true,false,false,true,true,false,false,true,true,false,false,true,false,true,false,true,true,false,false,true,false,true,false,true,true,false,true,false,false,true,false,true,false,false,true,false,24,24,100,100,,form submission,17880.189000009326,1045048.6800000072,1045043.23,1045059.896,1062940.0850000093,1062940.5150000239,2020-10-28T10:07:47.249Z,1063234.098,1603879466,full,final-task---level-of-agreeance,5f99360d0bbbdd5ca04d3b63,participant,hcpibiaokgt7wq5y,,,,,7,2,7,7,7,7,7,7,7,7,7,7,7,7,7,7,7,,7,7,7,7,7,7,7,7,7,7,7,7,7,7,7,,,,,,,,,,,,,,,,,,,,,,,
,,Page20_emoji,html.Page,4_31,false,true,true,false,false,true,false,true,true,false,true,false,true,false,false,true,true,false,false,true,true,false,false,true,false,true,false,true,true,false,false,true,false,true,false,true,true,false,true,false,false,true,false,true,false,false,true,false,24,24,100,100,,skipped,,1063021.8250000034,,,1062940.0850000093,1063022.2900000517,2020-10-28T10:07:47.330Z,1063234.098,1603879466,full,final-task---level-of-agreeance,5f99360d0bbbdd5ca04d3b63,participant,hcpibiaokgt7wq5y,,,,,7,,7,7,7,7,7,7,7,7,7,7,7,7,7,7,7,,7,7,7,7,7,7,7,7,7,7,7,7,7,7,7,7,,,,,,,,,,,,,,,,,,,,,,
,,Page8_text,html.Page,4_32,false,true,true,false,false,true,false,true,true,false,true,false,true,false,false,true,true,false,false,true,true,false,false,true,false,true,false,true,true,false,false,true,false,true,false,true,true,false,true,false,false,true,false,true,false,false,true,false,24,24,100,100,,skipped,,1063088.480000035,,,1062940.0850000093,1063088.9150000294,2020-10-28T10:07:47.397Z,1063234.098,1603879466,full,final-task---level-of-agreeance,5f99360d0bbbdd5ca04d3b63,participant,hcpibiaokgt7wq5y,,,,,7,,7,7,7,7,7,7,7,7,7,7,7,7,7,7,7,,7,7,7,7,7,7,7,7,7,7,7,7,7,7,7,7,7,,,,,,,,,,,,,,,,,,,,,
,,Page16_text,html.Page,4_33,false,true,true,false,false,true,false,true,true,false,true,false,true,false,false,true,true,false,false,true,true,false,false,true,false,true,false,true,true,false,false,true,false,true,false,true,true,false,true,false,false,true,false,true,false,false,true,false,24,24,100,100,,skipped,,1063156.7150000483,,,1062940.0850000093,1063157.189999998,2020-10-28T10:07:47.465Z,1063234.098,1603879466,full,final-task---level-of-agreeance,5f99360d0bbbdd5ca04d3b63,participant,hcpibiaokgt7wq5y,,,,,7,,7,7,7,7,7,7,7,7,7,7,7,7,7,7,7,,7,7,7,7,7,7,7,7,7,7,7,7,7,7,7,7,7,7,,,,,,,,,,,,,,,,,,,,
,,Page23_text,html.Page,4_34,false,true,true,false,false,true,false,true,true,false,true,false,true,false,false,true,true,false,false,true,true,false,false,true,false,true,false,true,true,false,false,true,false,true,false,true,true,false,true,false,false,true,false,true,true,false,true,false,25,24,100,100,,form submission,14093.137000033399,1063221.985000011,1063217.432,1063234.098,1077327.2350000334,1077327.740000037,2020-10-28T10:08:01.636Z,1078208.738,1603879466,full,final-task---level-of-agreeance,5f99360d0bbbdd5ca04d3b63,participant,hcpibiaokgt7wq5y,,,,,7,6,7,7,7,7,7,7,7,7,7,7,7,7,7,7,7,,7,7,7,7,7,7,7,7,7,7,7,7,7,7,7,7,7,7,7,,,,,,,,,,,,,,,,,,,
,,Page17_text,html.Page,4_35,false,true,true,false,false,true,false,true,true,false,true,false,true,false,false,true,true,false,false,true,true,false,false,true,false,true,false,true,true,false,false,true,false,true,false,true,true,false,true,false,false,true,false,true,true,false,true,false,25,24,100,100,,skipped,,1077413.8000000385,,,1077327.2350000334,1077414.2750000465,2020-10-28T10:08:01.723Z,1078208.738,1603879466,full,final-task---level-of-agreeance,5f99360d0bbbdd5ca04d3b63,participant,hcpibiaokgt7wq5y,,,,,7,,7,7,7,7,7,7,7,7,7,7,7,7,7,7,7,,7,7,7,7,7,7,7,7,7,7,7,7,7,7,7,7,7,7,7,7,,,,,,,,,,,,,,,,,,
,,Page11_emoji,html.Page,4_36,false,true,true,false,false,true,false,true,true,false,true,false,true,false,false,true,true,false,false,true,true,false,false,true,false,true,false,true,true,false,false,true,false,true,false,true,true,false,true,false,false,true,false,true,true,false,true,false,25,24,100,100,,skipped,,1077480.3150000516,,,1077327.2350000334,1077480.7700000238,2020-10-28T10:08:01.789Z,1078208.738,1603879466,full,final-task---level-of-agreeance,5f99360d0bbbdd5ca04d3b63,participant,hcpibiaokgt7wq5y,,,,,7,,7,7,7,7,7,7,7,7,7,7,7,7,7,7,7,,7,7,7,7,7,7,7,7,7,7,7,7,7,7,7,7,7,7,7,7,7,,,,,,,,,,,,,,,,,
,,Page24_emoji,html.Page,4_37,false,true,true,false,false,true,false,true,true,false,true,false,true,false,false,true,true,false,false,true,true,false,false,true,false,true,false,true,true,false,false,true,false,true,false,true,true,false,true,false,false,true,false,true,true,false,true,false,25,24,100,100,,skipped,,1077548.0150000076,,,1077327.2350000334,1077548.46000002,2020-10-28T10:08:01.857Z,1078208.738,1603879466,full,final-task---level-of-agreeance,5f99360d0bbbdd5ca04d3b63,participant,hcpibiaokgt7wq5y,,,,,7,,7,7,7,7,7,7,7,7,7,7,7,7,7,7,7,,7,7,7,7,7,7,7,7,7,7,7,7,7,7,7,7,7,7,7,7,7,7,,,,,,,,,,,,,,,,
,,Page7_emoji,html.Page,4_38,false,true,true,false,false,true,false,true,true,false,true,false,true,false,false,true,true,false,false,true,true,false,false,true,false,true,false,true,true,false,false,true,false,true,false,true,true,false,true,false,false,true,false,true,true,false,true,false,25,24,100,100,,skipped,,1077613.1900000037,,,1077327.2350000334,1077613.6400000541,2020-10-28T10:08:01.922Z,1078208.738,1603879466,full,final-task---level-of-agreeance,5f99360d0bbbdd5ca04d3b63,participant,hcpibiaokgt7wq5y,,,,,7,,7,7,7,7,7,7,7,7,7,7,7,7,7,7,7,,7,7,7,7,7,7,7,7,7,7,7,7,7,7,7,7,7,7,7,7,7,7,7,,,,,,,,,,,,,,,
,,Page4_text,html.Page,4_39,false,true,true,false,false,true,false,true,true,false,true,false,true,false,false,true,true,false,false,true,true,false,false,true,false,true,false,true,true,false,false,true,false,true,false,true,true,false,true,false,false,true,false,true,true,false,true,false,25,24,100,100,,skipped,,1077663.675000018,,,1077327.2350000334,1077664.1300000483,2020-10-28T10:08:01.973Z,1078208.738,1603879466,full,final-task---level-of-agreeance,5f99360d0bbbdd5ca04d3b63,participant,hcpibiaokgt7wq5y,,,,,7,,7,7,7,7,7,7,7,7,7,7,7,7,7,7,7,,7,7,7,7,7,7,7,7,7,7,7,7,7,7,7,7,7,7,7,7,7,7,7,7,,,,,,,,,,,,,,
,,Page21_text,html.Page,4_40,false,true,true,false,false,true,false,true,true,false,true,false,true,false,false,true,true,false,false,true,true,false,false,true,false,true,false,true,true,false,false,true,false,true,false,true,true,false,true,false,false,true,false,true,true,false,true,false,25,24,100,100,,skipped,,1077731.3950000098,,,1077327.2350000334,1077731.85500002,2020-10-28T10:08:02.040Z,1078208.738,1603879466,full,final-task---level-of-agreeance,5f99360d0bbbdd5ca04d3b63,participant,hcpibiaokgt7wq5y,,,,,7,,7,7,7,7,7,7,7,7,7,7,7,7,7,7,7,,7,7,7,7,7,7,7,7,7,7,7,7,7,7,7,7,7,7,7,7,7,7,7,7,7,,,,,,,,,,,,,
,,Page23_emoji,html.Page,4_41,false,true,true,false,false,true,false,true,true,false,true,false,true,false,false,true,true,false,false,true,true,false,false,true,false,true,false,true,true,false,false,true,false,true,false,true,true,false,true,false,false,true,false,true,true,false,true,false,25,24,100,100,,skipped,,1077796.1500000092,,,1077327.2350000334,1077796.6050000396,2020-10-28T10:08:02.105Z,1078208.738,1603879466,full,final-task---level-of-agreeance,5f99360d0bbbdd5ca04d3b63,participant,hcpibiaokgt7wq5y,,,,,7,,7,7,7,7,7,7,7,7,7,7,7,7,7,7,7,,7,7,7,7,7,7,7,7,7,7,7,7,7,7,7,7,7,7,7,7,7,7,7,7,7,7,,,,,,,,,,,,
,,Page6_emoji,html.Page,4_42,false,true,true,false,false,true,false,true,true,false,true,false,true,false,false,true,true,false,false,true,true,false,false,true,false,true,false,true,true,false,false,true,false,true,false,true,true,false,true,false,false,true,false,true,true,false,true,false,25,24,100,100,,skipped,,1077862.6800000202,,,1077327.2350000334,1077863.1350000505,2020-10-28T10:08:02.172Z,1078208.738,1603879466,full,final-task---level-of-agreeance,5f99360d0bbbdd5ca04d3b63,participant,hcpibiaokgt7wq5y,,,,,7,,7,7,7,7,7,7,7,7,7,7,7,7,7,7,7,,7,7,7,7,7,7,7,7,7,7,7,7,7,7,7,7,7,7,7,7,7,7,7,7,7,7,7,,,,,,,,,,,
,,Page2_emoji,html.Page,4_43,false,true,true,false,false,true,false,true,true,false,true,false,true,false,false,true,true,false,false,true,true,false,false,true,false,true,false,true,true,false,false,true,false,true,false,true,true,false,true,false,false,true,false,true,true,false,true,false,25,24,100,100,,skipped,,1077928.895000019,,,1077327.2350000334,1077929.3550000293,2020-10-28T10:08:02.238Z,1078208.738,1603879466,full,final-task---level-of-agreeance,5f99360d0bbbdd5ca04d3b63,participant,hcpibiaokgt7wq5y,,,,,7,,7,7,7,7,7,7,7,7,7,7,7,7,7,7,7,,7,7,7,7,7,7,7,7,7,7,7,7,7,7,7,7,7,7,7,7,7,7,7,7,7,7,7,7,,,,,,,,,,
,,Page5_emoji,html.Page,4_44,false,true,true,false,false,true,false,true,true,false,true,false,true,false,false,true,true,false,false,true,true,false,false,true,false,true,false,true,true,false,false,true,false,true,false,true,true,false,true,false,false,true,false,true,true,false,true,false,25,24,100,100,,skipped,,1077996.7500000494,,,1077327.2350000334,1077997.2100000014,2020-10-28T10:08:02.306Z,1078208.738,1603879466,full,final-task---level-of-agreeance,5f99360d0bbbdd5ca04d3b63,participant,hcpibiaokgt7wq5y,,,,,7,,7,7,7,7,7,7,7,7,7,7,7,7,7,7,7,,7,7,7,7,7,7,7,7,7,7,7,7,7,7,7,7,7,7,7,7,7,7,7,7,7,7,7,7,7,,,,,,,,,
,,Page3_text,html.Page,4_45,false,true,true,false,false,true,false,true,true,false,true,false,true,false,false,true,true,false,false,true,true,false,false,true,false,true,false,true,true,false,false,true,false,true,false,true,true,false,true,false,false,true,false,true,true,false,true,false,25,24,100,100,,skipped,,1078063.5600000387,,,1077327.2350000334,1078064.0250000288,2020-10-28T10:08:02.372Z,1078208.738,1603879466,full,final-task---level-of-agreeance,5f99360d0bbbdd5ca04d3b63,participant,hcpibiaokgt7wq5y,,,,,7,,7,7,7,7,7,7,7,7,7,7,7,7,7,7,7,,7,7,7,7,7,7,7,7,7,7,7,7,7,7,7,7,7,7,7,7,7,7,7,7,7,7,7,7,7,7,,,,,,,,
,,Page10_text,html.Page,4_46,false,true,true,false,false,true,false,true,true,false,true,false,true,false,false,true,true,false,false,true,true,false,false,true,false,true,false,true,true,false,false,true,false,true,false,true,true,false,true,false,false,true,false,true,true,false,true,false,25,24,100,100,,skipped,,1078130.7850000449,,,1077327.2350000334,1078131.250000035,2020-10-28T10:08:02.440Z,1078208.738,1603879466,full,final-task---level-of-agreeance,5f99360d0bbbdd5ca04d3b63,participant,hcpibiaokgt7wq5y,,,,,7,,7,7,7,7,7,7,7,7,7,7,7,7,7,7,7,,7,7,7,7,7,7,7,7,7,7,7,7,7,7,7,7,7,7,7,7,7,7,7,7,7,7,7,7,7,7,7,,,,,,,
,,Page13_text,html.Page,4_47,false,true,true,false,false,true,false,true,true,false,true,false,true,false,false,true,true,false,false,true,true,false,false,true,false,true,false,true,true,false,false,true,false,true,false,true,true,false,true,false,false,true,false,true,true,false,true,false,25,24,100,100,,skipped,,1078197.2600000445,,,1077327.2350000334,1078197.9050000082,2020-10-28T10:08:02.506Z,1078208.738,1603879466,full,final-task---level-of-agreeance,5f99360d0bbbdd5ca04d3b63,participant,hcpibiaokgt7wq5y,,,,,7,,7,7,7,7,7,7,7,7,7,7,7,7,7,7,7,,7,7,7,7,7,7,7,7,7,7,7,7,7,7,7,7,7,7,7,7,7,7,7,7,7,7,7,7,7,7,7,7,,,,,,
,,Sequence,flow.Sequence,4,false,true,true,false,false,true,false,true,true,false,true,false,true,false,false,true,true,false,false,true,true,false,false,true,false,true,false,true,true,false,false,true,false,true,false,true,true,false,true,false,false,true,false,true,true,false,true,false,25,24,100,100,,completion,1044488.9100000334,32745.165000029374,32821.659,32838.325,1077327.2350000334,1078201.8600000301,2020-10-28T10:08:02.510Z,1078208.738,1603879466,full,final-task---level-of-agreeance,5f99360d0bbbdd5ca04d3b63,participant,hcpibiaokgt7wq5y,,,,,7,,7,7,7,7,7,7,7,7,7,7,7,7,7,7,7,,7,7,7,7,7,7,7,7,7,7,7,7,7,7,7,7,7,7,7,7,7,7,7,7,7,7,7,7,7,7,7,7,,,,,,
,,Page,html.Page,5,false,true,true,false,false,true,false,true,true,false,true,false,true,false,false,true,true,false,false,true,true,false,false,true,false,true,false,true,true,false,false,true,false,true,false,true,true,false,true,false,false,true,false,true,true,false,true,false,25,24,100,100,,form submission,10306.577000026125,1078204.1150000296,1078192.072,1078208.738,1088515.315000026,1088515.8800000208,2020-10-28T10:08:12.825Z,1088536.915,1603879466,full,final-task---level-of-agreeance,5f99360d0bbbdd5ca04d3b63,participant,hcpibiaokgt7wq5y,,,,,7,,7,7,7,7,7,7,7,7,7,7,7,7,7,7,7,,7,7,7,7,7,7,7,7,7,7,7,7,7,7,7,7,7,7,7,7,7,7,7,7,7,7,7,7,7,7,7,7,24,168,24,168,7,7
,,root,flow.Sequence,,false,true,true,false,false,true,false,true,true,false,true,false,true,false,false,true,true,false,false,true,true,false,false,true,false,true,false,true,true,false,false,true,false,true,false,true,true,false,true,false,false,true,false,true,true,false,true,false,25,24,100,100,,completion,1087806.562000026,695.5350000062026,692.087,708.753,1088515.315000026,1088518.3800000232,2020-10-28T10:08:12.827Z,1088536.915,1603879466,full,final-task---level-of-agreeance,5f99360d0bbbdd5ca04d3b63,participant,hcpibiaokgt7wq5y,,,,,7,,7,7,7,7,7,7,7,7,7,7,7,7,7,7,7,,7,7,7,7,7,7,7,7,7,7,7,7,7,7,7,7,7,7,7,7,7,7,7,7,7,7,7,7,7,7,7,7,24,168,24,168,7,7
[object Object],"{""labjs_version"":""20.1.1"",""labjs_build"":{""flavor"":""production"",""commit"":""c48ac4ada3769e8d34489594ab03097d5f256ac7""},""location"":""https://open-lab.online/test/final-task---level-of-agreeance/5f9942a70bbbdd5ca04d3bfd?fbclid=IwAR0cdrFdSWcmlTBcsaPfJqoTqwaJtITiZPaGL2aO2ctMDQyhC7_742tLsSQ"",""userAgent"":""Mozilla/5.0 (Macintosh; Intel Mac OS X 10_15_7) AppleWebKit/537.36 (KHTML, like Gecko) Chrome/86.0.4240.111 Safari/537.36"",""platform"":""MacIntel"",""language"":""en-GB"",""locale"":""en-GB"",""timeZone"":""Europe/Copenhagen"",""timezoneOffset"":-60,""screen_width"":1280,""screen_height"":800,""scroll_width"":1280,""scroll_height"":611,""window_innerWidth"":1280,""window_innerHeight"":635,""devicePixelRatio"":2}",Information letter,html.Page,0,false,false,false,false,false,false,false,false,false,false,false,false,false,false,false,false,false,false,false,false,false,false,false,false,false,false,false,false,false,false,false,false,false,false,false,false,false,false,false,false,false,false,false,false,false,false,false,false,1,24,103,207,,form submission,14632.517999999907,693.1000000004133,699.458,716.132,15348.649999999907,15349.58000000006,2020-10-28T10:06:47.050Z,15375.286,1603880137,full,final-task---level-of-agreeance,5f99360d0bbbdd5ca04d3b63,participant,hcpibiaokgt8hvwk,483091,,,,,,,,,,,,,,,,,,,,,,,,,,,,,,,,,,,,,,,,,,,,,,,,,,,,,,,,,,,
,,Informed consent,html.Page,1,false,false,false,false,false,false,false,false,false,false,false,false,false,false,false,false,false,false,false,false,false,false,false,false,false,false,false,false,false,false,false,false,false,false,false,false,false,false,false,false,false,false,false,false,false,false,false,false,1,24,100,100,,form submission,12552.634000000086,15350.019999999859,15358.612,15375.286,27927.920000000086,27928.1749999991,2020-10-28T10:06:59.629Z,27953.874,1603880137,full,final-task---level-of-agreeance,5f99360d0bbbdd5ca04d3b63,participant,hcpibiaokgt8hvwk,,undefined,,,,,,,,,,,,,,,,,,,,,,,,,,,,,,,,,,,,,,,,,,,,,,,,,,,,,,,,,,
,,Questions about participant,html.Page,2,false,false,false,false,false,false,false,false,false,false,false,false,false,false,false,false,false,false,false,false,false,false,false,false,false,false,false,false,false,false,false,false,false,false,false,false,false,false,false,false,false,false,false,false,false,false,false,false,1,24,100,100,,form submission,6536.190999999959,27928.384999999253,27937.2,27953.874,34490.06499999996,34490.34000000029,2020-10-28T10:07:06.191Z,34506.756,1603880137,full,final-task---level-of-agreeance,5f99360d0bbbdd5ca04d3b63,participant,hcpibiaokgt8hvwk,,,101,202,,,,,,,,,,,,,,,,,,,,,,,,,,,,,,,,,,,,,,,,,,,,,,,,,,,,,,,,
,,Information about the experiment,html.Page,3,false,false,false,false,false,false,false,false,false,false,false,false,false,false,false,false,false,false,false,false,false,false,false,false,false,false,false,false,false,false,false,false,false,false,false,false,false,false,false,false,false,false,false,false,false,false,false,false,1,24,100,100,,form submission,44818.97900000035,34490.61500000062,34490.082,34506.756,79325.73500000035,79326.07999999891,2020-10-28T10:07:51.028Z,79414.714,1603880137,full,final-task---level-of-agreeance,5f99360d0bbbdd5ca04d3b63,participant,hcpibiaokgt8hvwk,,,,,,,,,,,,,,,,,,,,,,,,,,,,,,,,,,,,,,,,,,,,,,,,,,,,,,,,,,,,
,,Page18_text,html.Page,4_0,false,false,false,false,false,false,false,false,false,false,false,false,false,false,false,false,false,false,false,false,false,false,false,false,false,false,false,false,false,false,false,false,false,false,true,false,false,false,false,false,false,false,false,false,false,false,false,false,2,24,100,100,,form submission,49130.60599999926,79403.37999999974,79398.04,79414.714,128545.31999999926,128545.5750000001,2020-10-28T10:08:40.249Z,128745.876,1603880137,full,final-task---level-of-agreeance,5f99360d0bbbdd5ca04d3b63,participant,hcpibiaokgt8hvwk,,,,,,4,,,,,,,,7,,,,,,,,,,,,,,,,,,,,,,,,,,,,,,,,,,,,,,,,,,,,,,
,,Page24_text,html.Page,4_1,false,false,false,false,false,false,false,false,false,false,false,false,false,false,false,false,false,false,false,false,false,false,false,false,false,false,false,false,false,false,false,false,false,false,true,false,false,false,false,false,false,false,false,false,false,false,true,false,3,24,100,100,,form submission,41156.904000000344,128733.79999999997,128729.202,128745.876,169902.78000000035,169903.01999999973,2020-10-28T10:09:21.608Z,169989.227,1603880137,full,final-task---level-of-agreeance,5f99360d0bbbdd5ca04d3b63,participant,hcpibiaokgt8hvwk,,,,,,1,,,,,,,,7,,,,,,,,,,,,,,,,,,,,,,,7,,,,,,,,,,,,,,,,,,,,,,,
,,Page16_text,html.Page,4_2,false,false,false,false,false,false,false,false,false,false,false,false,false,false,false,false,false,false,false,false,false,false,false,false,false,false,false,false,false,false,true,false,false,false,true,false,false,false,false,false,false,false,false,false,false,false,true,false,4,24,100,100,,form submission,38577.6079999996,169976.95000000022,169972.553,169989.227,208566.8349999996,208567.25499999995,2020-10-28T10:10:00.273Z,208664.665,1603880137,full,final-task---level-of-agreeance,5f99360d0bbbdd5ca04d3b63,participant,hcpibiaokgt8hvwk,,,,,,5,,,,,,,,7,,,,,,,,,,,,,,,,,,,,,,,7,,,7,,,,,,,,,,,,,,,,,,,,
,,Page6_emoji,html.Page,4_3,false,false,false,false,false,false,false,false,false,false,false,true,false,false,false,false,false,false,false,false,false,false,false,false,false,false,false,false,false,false,true,false,false,false,true,false,false,false,false,false,false,false,false,false,false,false,true,false,5,24,100,100,,form submission,14156.374999998894,208650.3049999992,208647.991,208664.665,222821.0399999989,222821.28000000012,2020-10-28T10:10:14.528Z,222905.423,1603880137,full,final-task---level-of-agreeance,5f99360d0bbbdd5ca04d3b63,participant,hcpibiaokgt8hvwk,,,,,,4,,,,,,,,7,,,,,,,,,,,,,,,,,,,,,,,7,,,7,,,,,,,,,7,,,,,,,,,,,
,,Page20_text,html.Page,4_4,false,false,false,false,false,false,false,false,false,false,false,true,false,false,false,false,false,false,false,false,false,false,false,false,false,false,false,false,false,false,true,false,false,false,true,false,false,false,true,false,false,false,false,false,false,false,true,false,6,24,100,100,,form submission,44353.401999998954,222892.53499999904,222888.749,222905.423,267258.82499999896,267259.0600000003,2020-10-28T10:10:58.967Z,267347.52,1603880137,full,final-task---level-of-agreeance,5f99360d0bbbdd5ca04d3b63,participant,hcpibiaokgt8hvwk,,,,,,2,,,,,,,7,7,,,,,,,,,,,,,,,,,,,,,,,7,,,7,,,,,,,,,7,,,,,,,,,,,
,,Page21_emoji,html.Page,4_5,false,false,false,false,false,false,false,false,false,false,false,true,false,false,false,false,false,false,false,false,false,false,false,false,false,false,false,false,false,false,true,false,false,false,true,false,false,false,true,false,false,true,false,false,false,false,true,false,7,24,100,100,,form submission,22455.93999999913,267334.10999999975,267330.846,267347.52,289803.45999999915,289803.8149999993,2020-10-28T10:11:21.512Z,289949.282,1603880137,full,final-task---level-of-agreeance,5f99360d0bbbdd5ca04d3b63,participant,hcpibiaokgt8hvwk,,,,,,7,,,,,,,7,7,,,,,,,,,,,7,,,,,,,,,,,,7,,,7,,,,,,,,,7,,,,,,,,,,,
,,Page6_text,html.Page,4_6,false,false,false,false,false,false,false,false,false,false,false,true,false,false,false,false,false,false,false,false,false,false,false,false,false,false,false,false,false,false,true,false,false,false,true,false,false,false,true,false,false,true,false,false,false,false,true,false,7,24,100,100,,skipped,,289869.2150000006,,,289803.45999999915,289869.6,2020-10-28T10:11:21.578Z,289949.282,1603880137,full,final-task---level-of-agreeance,5f99360d0bbbdd5ca04d3b63,participant,hcpibiaokgt8hvwk,,,,,7,,,,,,,,7,7,,,,,,,,,,,7,,,,,,,,,,,,7,,,7,,,,,,,,,7,,,,,,,,,,,
,,Page22_text,html.Page,4_7,false,false,false,false,false,false,false,false,false,false,false,true,false,false,false,false,false,false,false,false,false,false,false,false,false,false,false,false,false,false,true,false,false,false,true,false,false,false,true,false,false,true,true,false,false,false,true,false,8,24,100,100,,form submission,39762.27299999987,289935.845,289932.608,289949.282,329711.5549999999,329711.8850000006,2020-10-28T10:12:01.421Z,329800.793,1603880137,full,final-task---level-of-agreeance,5f99360d0bbbdd5ca04d3b63,participant,hcpibiaokgt8hvwk,,,,,7,3,,,,,,,7,7,,,,,,,,,,,7,,,,,,,7,,,,,7,,,7,,,,,,,,,7,,,,,,,,,,,
,,Page14_emoji,html.Page,4_8,false,false,false,false,false,false,false,false,false,false,false,true,false,false,false,false,false,false,false,false,false,false,false,false,false,false,false,true,false,false,true,false,false,false,true,false,false,false,true,false,false,true,true,false,false,false,true,false,9,24,100,100,,form submission,24291.7569999994,329787.82499999943,329784.119,329800.793,354092.5499999994,354092.8999999997,2020-10-28T10:12:25.803Z,354297.934,1603880137,full,final-task---level-of-agreeance,5f99360d0bbbdd5ca04d3b63,participant,hcpibiaokgt8hvwk,,,,,7,2,,,,,,,7,7,7,,,,,,,,,,7,,,,,,,7,,,,,7,,,7,,,,,,,,,7,,,,,,,,,,,
,,Page24_emoji,html.Page,4_9,false,false,false,false,false,false,false,false,false,false,false,true,false,false,false,false,false,false,false,false,false,false,false,false,false,false,false,true,false,false,true,false,false,false,true,false,false,false,true,false,false,true,true,false,false,false,true,false,9,24,100,100,,skipped,,354185.5400000004,,,354092.5499999994,354185.98999999993,2020-10-28T10:12:25.896Z,354297.934,1603880137,full,final-task---level-of-agreeance,5f99360d0bbbdd5ca04d3b63,participant,hcpibiaokgt8hvwk,,,,,7,,,,,,,,7,7,7,,,,,,,,,,7,,,,,,,7,,,,,7,,,7,,,,7,,,,,7,,,,,,,,,,,
,,Page21_text,html.Page,4_10,false,false,false,false,false,false,false,false,false,false,false,true,false,false,false,false,false,false,false,false,false,false,false,false,false,false,false,true,false,false,true,false,false,false,true,false,false,false,true,false,false,true,true,false,false,false,true,false,9,24,100,100,,skipped,,354217.4699999996,,,354092.5499999994,354217.6899999995,2020-10-28T10:12:25.928Z,354297.934,1603880137,full,final-task---level-of-agreeance,5f99360d0bbbdd5ca04d3b63,participant,hcpibiaokgt8hvwk,,,,,7,,,,,,,,7,7,7,,,,,,,,,,7,,,,,,,7,,,,,7,,,7,,,,7,,,7,,7,,,,,,,,,,,
,,Page9_emoji,html.Page,4_11,false,false,false,false,false,false,false,false,false,false,false,true,false,false,false,false,false,true,false,false,false,false,false,false,false,false,false,true,false,false,true,false,false,false,true,false,false,false,true,false,false,true,true,false,false,false,true,false,10,24,100,100,,form submission,41723.995999998995,354283.79499999934,354281.26,354297.934,396021.929999999,396022.1650000003,2020-10-28T10:13:07.734Z,396167.634,1603880137,full,final-task---level-of-agreeance,5f99360d0bbbdd5ca04d3b63,participant,hcpibiaokgt8hvwk,,,,,7,4,,,,,,,7,7,7,,,,,,,,,,7,,,,,,7,7,,,,,7,,,7,,,,7,,,7,,7,,,,,,,,,,,
,,Page15_emoji,html.Page,4_12,false,false,false,false,false,false,false,false,false,false,false,true,false,false,false,false,false,true,false,false,false,false,false,false,false,false,false,true,false,true,true,false,false,false,true,false,false,false,true,false,false,true,true,false,false,false,true,false,11,24,100,100,,form submission,79203.70599999966,396155.99999999907,396150.96,396167.634,475371.3399999997,475371.75000000023,2020-10-28T10:14:27.086Z,475583.203,1603880137,full,final-task---level-of-agreeance,5f99360d0bbbdd5ca04d3b63,participant,hcpibiaokgt8hvwk,,,,,7,2,,,,,,,7,7,7,,,,,,,,7,,7,,,,,,7,7,,,,,7,,,7,,,,7,,,7,,7,,,,,,,,,,,
,,Page18_emoji,html.Page,4_13,false,false,false,false,false,false,false,false,false,false,false,true,false,false,false,false,false,true,false,false,false,false,false,false,false,false,false,true,false,true,true,false,false,false,true,false,false,false,true,false,false,true,true,false,false,false,true,false,11,24,100,100,,skipped,,475503.3600000006,,,475371.3399999997,475503.68999999954,2020-10-28T10:14:27.218Z,475583.203,1603880137,full,final-task---level-of-agreeance,5f99360d0bbbdd5ca04d3b63,participant,hcpibiaokgt8hvwk,,,,,7,,,,7,,,,7,7,7,,,,,,,,7,,7,,,,,,7,7,,,,,7,,,7,,,,7,,,7,,7,,,,,,,,,,,
,,Page3_text,html.Page,4_14,false,false,false,false,true,false,false,false,false,false,false,true,false,false,false,false,false,true,false,false,false,false,false,false,false,false,false,true,false,true,true,false,false,false,true,false,false,false,true,false,false,true,true,false,false,false,true,false,12,24,100,100,,form submission,31304.71199999936,475569.5149999992,475566.529,475583.203,506887.91499999934,506888.17000000016,2020-10-28T10:14:58.603Z,506969.462,1603880137,full,final-task---level-of-agreeance,5f99360d0bbbdd5ca04d3b63,participant,hcpibiaokgt8hvwk,,,,,7,6,,,7,,,,7,7,7,,,,,,,,7,,7,,,,,,7,7,,,,,7,,,7,,,,7,,,7,,7,,,7,,,,,,,,
,,Page11_text,html.Page,4_15,false,false,false,false,true,false,false,false,false,false,false,true,false,false,false,false,false,true,false,false,true,false,false,false,false,false,false,true,false,true,true,false,false,false,true,false,false,false,true,false,false,true,true,false,false,false,true,false,13,24,100,100,,form submission,26401.017999999633,506955.7399999994,506952.788,506969.462,533370.4799999996,533371.0499999997,2020-10-28T10:15:25.087Z,533459.678,1603880137,full,final-task---level-of-agreeance,5f99360d0bbbdd5ca04d3b63,participant,hcpibiaokgt8hvwk,,,,,7,2,,,7,,,,7,7,7,,,,,,,,7,,7,,,7,,,7,7,,,,,7,,,7,,,,7,,,7,,7,,,7,,,,,,,,
,,Page17_emoji,html.Page,4_16,false,false,false,false,true,false,false,false,false,false,false,true,false,false,false,false,false,true,false,false,true,false,false,false,false,false,false,true,false,true,true,false,false,true,true,false,false,false,true,false,false,true,true,false,false,false,true,false,14,24,100,100,,form submission,11583.717000000644,533446.4200000002,533443.004,533459.678,545043.3950000006,545043.7249999995,2020-10-28T10:15:36.760Z,545113.963,1603880137,full,final-task---level-of-agreeance,5f99360d0bbbdd5ca04d3b63,participant,hcpibiaokgt8hvwk,,,,,7,7,,,7,,,,7,7,7,,,,,,,,7,,7,,,7,,7,7,7,,,,,7,,,7,,,,7,,,7,,7,,,7,,,,,,,,
,,Page23_emoji,html.Page,4_17,false,false,false,false,true,false,false,false,false,false,false,true,false,false,false,false,false,true,false,false,true,false,false,false,false,false,false,true,false,true,true,false,false,true,true,false,false,false,true,false,false,true,true,false,false,true,true,false,15,24,100,100,,form submission,19186.23699999973,545099.624999999,545097.289,545113.963,564300.1999999997,564300.5300000005,2020-10-28T10:15:56.017Z,564384.539,1603880137,full,final-task---level-of-agreeance,5f99360d0bbbdd5ca04d3b63,participant,hcpibiaokgt8hvwk,,,,,7,4,,,7,,,,7,7,7,,,,,,,,7,,7,,,7,,7,7,7,,,,,7,,,7,,,,7,,,7,7,7,,,7,,,,,,,,
,,Page10_text,html.Page,4_18,false,false,false,false,true,false,false,false,false,false,false,true,false,false,false,false,false,true,true,false,true,false,false,false,false,false,false,true,false,true,true,false,false,true,true,false,false,false,true,false,false,true,true,false,false,true,true,false,16,24,100,100,,form submission,21780.210999999894,564371.5849999989,564367.865,564384.539,586164.7499999999,586165.2199999989,2020-10-28T10:16:17.882Z,586253.549,1603880137,full,final-task---level-of-agreeance,5f99360d0bbbdd5ca04d3b63,participant,hcpibiaokgt8hvwk,,,,,7,6,,,7,,,,7,7,7,,,,,,,,7,,7,,,7,,7,7,7,,,,,7,,,7,,,,7,,,7,7,7,,,7,7,,,,,,,
,,Page4_text,html.Page,4_19,false,false,false,false,true,false,true,false,false,false,false,true,false,false,false,false,false,true,true,false,true,false,false,false,false,false,false,true,false,true,true,false,false,true,true,false,false,false,true,false,false,true,true,false,false,true,true,false,17,24,100,100,,form submission,36274.98099999956,586239.6100000006,586236.875,586253.549,622528.5299999996,622528.8199999996,2020-10-28T10:16:54.247Z,622623.912,1603880137,full,final-task---level-of-agreeance,5f99360d0bbbdd5ca04d3b63,participant,hcpibiaokgt8hvwk,,,,,7,6,,,7,,,,7,7,7,,,,,,,,7,,7,,,7,,7,7,7,,,,,7,,,7,,,,7,,7,7,7,7,,,7,7,,,,,,,
,,Page7_emoji,html.Page,4_20,false,false,false,false,true,false,true,false,false,false,false,true,false,true,false,false,false,true,true,false,true,false,false,false,false,false,false,true,false,true,true,false,false,true,true,false,false,false,true,false,false,true,true,false,false,true,true,false,18,24,100,100,,form submission,9113.98300000024,622608.9649999994,622607.238,622623.912,631737.8950000003,631738.1700000005,2020-10-28T10:17:03.457Z,631832.865,1603880137,full,final-task---level-of-agreeance,5f99360d0bbbdd5ca04d3b63,participant,hcpibiaokgt8hvwk,,,,,7,2,,,7,,,,7,7,7,,,,,,,,7,,7,,,7,,7,7,7,,,,,7,,,7,,,,7,7,7,7,7,7,,,7,7,,,,,,,
,,Page19_text,html.Page,4_21,false,false,false,false,true,false,true,false,false,false,false,true,false,true,false,false,false,true,true,false,true,false,false,false,false,false,false,true,false,true,true,false,false,true,true,false,true,false,true,false,false,true,true,false,false,true,true,false,19,24,100,100,,form submission,17302,631819.2149999995,631816.191,631832.865,649134.865,649135.1350000005,2020-10-28T10:17:20.854Z,649221.799,1603880137,full,final-task---level-of-agreeance,5f99360d0bbbdd5ca04d3b63,participant,hcpibiaokgt8hvwk,,,,,7,7,,,7,,,7,7,7,7,,,,,,,,7,,7,,,7,,7,7,7,,,,,7,,,7,,,,7,7,7,7,7,7,,,7,7,,,,,,,
,,Page13_text,html.Page,4_22,false,false,false,false,true,false,true,false,false,false,false,true,false,true,false,false,false,true,true,false,true,false,false,false,true,false,false,true,false,true,true,false,false,true,true,false,true,false,true,false,false,true,true,false,false,true,true,false,20,24,100,100,,form submission,122601.15599999961,649208.8000000003,649205.125,649221.799,771822.9549999996,771823.1849999992,2020-10-28T10:19:23.555Z,771966.758,1603880137,full,final-task---level-of-agreeance,5f99360d0bbbdd5ca04d3b63,participant,hcpibiaokgt8hvwk,,,,,7,5,,,7,,,7,7,7,7,,,,,,,,7,,7,,,7,,7,7,7,,,,,7,,,7,,,,7,7,7,7,7,7,,,7,7,7,,,,,,
,,Page5_text,html.Page,4_23,false,false,false,false,true,false,true,false,true,false,false,true,false,true,false,false,false,true,true,false,true,false,false,false,true,false,false,true,false,true,true,false,false,true,true,false,true,false,true,false,false,true,true,false,false,true,true,false,21,24,100,100,,form submission,20065.477000000537,771952.6750000005,771950.084,771966.758,792032.2350000006,792032.6949999998,2020-10-28T10:19:43.767Z,792125.56,1603880137,full,final-task---level-of-agreeance,5f99360d0bbbdd5ca04d3b63,participant,hcpibiaokgt8hvwk,,,,,7,5,,,7,,,7,7,7,7,,,,,,,,7,,7,,,7,,7,7,7,,,7,,7,,,7,,,,7,7,7,7,7,7,,,7,7,7,,,,,,
,,Page2_emoji,html.Page,4_24,false,false,false,true,true,false,true,false,true,false,false,true,false,true,false,false,false,true,true,false,true,false,false,false,true,false,false,true,false,true,true,false,false,true,true,false,true,false,true,false,false,true,true,false,false,true,true,false,22,24,100,100,,form submission,8870.110000000219,792111.7549999999,792108.886,792125.56,800995.6700000003,800995.895,2020-10-28T10:19:52.731Z,801506.424,1603880137,full,final-task---level-of-agreeance,5f99360d0bbbdd5ca04d3b63,participant,hcpibiaokgt8hvwk,,,,,7,2,,,7,,,7,7,7,7,,,,,,,,7,,7,,,7,,7,7,7,,,7,,7,,,7,,,,7,7,7,7,7,7,7,,7,7,7,,,,,,
,,Page10_emoji,html.Page,4_25,false,false,false,true,true,false,true,false,true,false,false,true,false,true,false,false,false,true,true,false,true,false,false,false,true,false,false,true,false,true,true,false,false,true,true,false,true,false,true,false,false,true,true,false,false,true,true,false,22,24,100,100,,skipped,,801076.4500000004,,,800995.6700000003,801076.685,2020-10-28T10:19:52.812Z,801506.424,1603880137,full,final-task---level-of-agreeance,5f99360d0bbbdd5ca04d3b63,participant,hcpibiaokgt8hvwk,,,,,7,,,,7,,,7,7,7,7,,,,,,,,7,7,7,,,7,,7,7,7,,,7,,7,,,7,,,,7,7,7,7,7,7,7,,7,7,7,,,,,,
,,Page9_text,html.Page,4_26,false,false,false,true,true,false,true,false,true,false,false,true,false,true,false,false,false,true,true,false,true,false,false,false,true,false,false,true,false,true,true,false,false,true,true,false,true,false,true,false,false,true,true,false,false,true,true,false,22,24,100,100,,skipped,,801126.5949999997,,,800995.6700000003,801126.9699999994,2020-10-28T10:19:52.862Z,801506.424,1603880137,full,final-task---level-of-agreeance,5f99360d0bbbdd5ca04d3b63,participant,hcpibiaokgt8hvwk,,,,,7,,,7,7,,,7,7,7,7,,,,,,,,7,7,7,,,7,,7,7,7,,,7,,7,,,7,,,,7,7,7,7,7,7,7,,7,7,7,,,,,,
,,Page14_text,html.Page,4_27,false,false,false,true,true,false,true,false,true,false,false,true,false,true,false,false,false,true,true,false,true,false,false,false,true,false,false,true,false,true,true,false,false,true,true,false,true,false,true,false,false,true,true,false,false,true,true,false,22,24,100,100,,skipped,,801159.9399999996,,,800995.6700000003,801160.1649999993,2020-10-28T10:19:52.895Z,801506.424,1603880137,full,final-task---level-of-agreeance,5f99360d0bbbdd5ca04d3b63,participant,hcpibiaokgt8hvwk,,,,,7,,,7,7,,,7,7,7,7,,,,,,,,7,7,7,7,,7,,7,7,7,,,7,,7,,,7,,,,7,7,7,7,7,7,7,,7,7,7,,,,,,
,,Page16_emoji,html.Page,4_28,false,false,false,true,true,false,true,false,true,false,false,true,false,true,false,false,false,true,true,false,true,false,false,false,true,false,false,true,false,true,true,false,false,true,true,false,true,false,true,false,false,true,true,false,false,true,true,false,22,24,100,100,,skipped,,801192.6249999997,,,800995.6700000003,801192.8549999993,2020-10-28T10:19:52.928Z,801506.424,1603880137,full,final-task---level-of-agreeance,5f99360d0bbbdd5ca04d3b63,participant,hcpibiaokgt8hvwk,,,,,7,,,7,7,,,7,7,7,7,,,7,,,,,7,7,7,7,,7,,7,7,7,,,7,,7,,,7,,,,7,7,7,7,7,7,7,,7,7,7,,,,,,
,,Page7_text,html.Page,4_29,false,false,false,true,true,false,true,false,true,false,false,true,false,true,false,false,false,true,true,false,true,false,false,false,true,false,false,true,false,true,true,false,false,true,true,false,true,false,true,false,false,true,true,false,false,true,true,false,22,24,100,100,,skipped,,801225.4699999994,,,800995.6700000003,801225.6949999991,2020-10-28T10:19:52.961Z,801506.424,1603880137,full,final-task---level-of-agreeance,5f99360d0bbbdd5ca04d3b63,participant,hcpibiaokgt8hvwk,,,,,7,,,7,7,,,7,7,7,7,,,7,,,,,7,7,7,7,,7,,7,7,7,7,,7,,7,,,7,,,,7,7,7,7,7,7,7,,7,7,7,,,,,,
,,Page3_emoji,html.Page,4_30,false,false,false,true,true,false,true,false,true,false,false,true,false,true,false,false,false,true,true,false,true,false,false,false,true,false,false,true,false,true,true,false,false,true,true,false,true,false,true,false,false,true,true,false,false,true,true,false,22,24,100,100,,skipped,,801275.7500000007,,,800995.6700000003,801275.959999999,2020-10-28T10:19:53.011Z,801506.424,1603880137,full,final-task---level-of-agreeance,5f99360d0bbbdd5ca04d3b63,participant,hcpibiaokgt8hvwk,,,,,7,,,7,7,,,7,7,7,7,7,,7,,,,,7,7,7,7,,7,,7,7,7,7,,7,,7,,,7,,,,7,7,7,7,7,7,7,,7,7,7,,,,,,
,,Page13_emoji,html.Page,4_31,false,false,false,true,true,false,true,false,true,false,false,true,false,true,false,false,false,true,true,false,true,false,false,false,true,false,false,true,false,true,true,false,false,true,true,false,true,false,true,false,false,true,true,false,false,true,true,false,22,24,100,100,,skipped,,801328.0749999995,,,800995.6700000003,801328.3049999991,2020-10-28T10:19:53.063Z,801506.424,1603880137,full,final-task---level-of-agreeance,5f99360d0bbbdd5ca04d3b63,participant,hcpibiaokgt8hvwk,,,,,7,,7,7,7,,,7,7,7,7,7,,7,,,,,7,7,7,7,,7,,7,7,7,7,,7,,7,,,7,,,,7,7,7,7,7,7,7,,7,7,7,,,,,,
,,Page19_emoji,html.Page,4_32,false,false,false,true,true,false,true,false,true,false,false,true,false,true,false,false,false,true,true,false,true,false,false,false,true,false,false,true,false,true,true,false,false,true,true,false,true,false,true,false,false,true,true,false,false,true,true,false,22,24,100,100,,skipped,,801376.5700000003,,,800995.6700000003,801376.8949999994,2020-10-28T10:19:53.112Z,801506.424,1603880137,full,final-task---level-of-agreeance,5f99360d0bbbdd5ca04d3b63,participant,hcpibiaokgt8hvwk,,,,,7,,7,7,7,,,7,7,7,7,7,,7,,,,,7,7,7,7,,7,7,7,7,7,7,,7,,7,,,7,,,,7,7,7,7,7,7,7,,7,7,7,,,,,,
,,Page11_emoji,html.Page,4_33,false,false,false,true,true,false,true,false,true,false,false,true,false,true,false,false,false,true,true,false,true,false,false,false,true,false,false,true,false,true,true,false,false,true,true,false,true,false,true,false,false,true,true,false,false,true,true,false,22,24,100,100,,skipped,,801425.7550000002,,,800995.6700000003,801426.0949999989,2020-10-28T10:19:53.161Z,801506.424,1603880137,full,final-task---level-of-agreeance,5f99360d0bbbdd5ca04d3b63,participant,hcpibiaokgt8hvwk,,,,,7,,7,7,7,,,7,7,7,7,7,,7,,,,,7,7,7,7,,7,7,7,7,7,7,,7,,7,,,7,,,7,7,7,7,7,7,7,7,,7,7,7,,,,,,
,,Page8_text,html.Page,4_34,false,false,false,true,true,false,true,false,true,false,false,true,false,true,true,false,false,true,true,false,true,false,false,false,true,false,false,true,false,true,true,false,false,true,true,false,true,false,true,false,false,true,true,false,false,true,true,false,23,24,100,100,,form submission,12255.405999999493,801491.8550000002,801489.75,801506.424,813761.8299999995,813762.0900000002,2020-10-28T10:20:05.498Z,814078.984,1603880137,full,final-task---level-of-agreeance,5f99360d0bbbdd5ca04d3b63,participant,hcpibiaokgt8hvwk,,,,,7,6,7,7,7,,,7,7,7,7,7,,7,,,,,7,7,7,7,,7,7,7,7,7,7,,7,,7,,7,7,,,7,7,7,7,7,7,7,7,,7,7,7,,,,,,
,,Page4_emoji,html.Page,4_35,false,false,false,true,true,false,true,false,true,false,false,true,false,true,true,false,false,true,true,false,true,false,false,false,true,false,false,true,false,true,true,false,false,true,true,false,true,false,true,false,false,true,true,false,false,true,true,false,23,24,100,100,,skipped,,813831.945,,,813761.8299999995,813832.2100000004,2020-10-28T10:20:05.568Z,814078.984,1603880137,full,final-task---level-of-agreeance,5f99360d0bbbdd5ca04d3b63,participant,hcpibiaokgt8hvwk,,,,,7,,7,7,7,,,7,7,7,7,7,,7,,,,,7,7,7,7,,7,7,7,7,7,7,7,7,,7,,7,7,,,7,7,7,7,7,7,7,7,,7,7,7,,,,,,
,,Page22_emoji,html.Page,4_36,false,false,false,true,true,false,true,false,true,false,false,true,false,true,true,false,false,true,true,false,true,false,false,false,true,false,false,true,false,true,true,false,false,true,true,false,true,false,true,false,false,true,true,false,false,true,true,false,23,24,100,100,,skipped,,813899.7899999995,,,813761.8299999995,813900.1200000002,2020-10-28T10:20:05.636Z,814078.984,1603880137,full,final-task---level-of-agreeance,5f99360d0bbbdd5ca04d3b63,participant,hcpibiaokgt8hvwk,,,,,7,,7,7,7,,,7,7,7,7,7,,7,,,,,7,7,7,7,7,7,7,7,7,7,7,7,7,,7,,7,7,,,7,7,7,7,7,7,7,7,,7,7,7,,,,,,
,,Page17_text,html.Page,4_37,false,false,false,true,true,false,true,false,true,false,false,true,false,true,true,false,false,true,true,false,true,false,false,false,true,false,false,true,false,true,true,false,false,true,true,false,true,false,true,false,false,true,true,false,false,true,true,false,23,24,100,100,,skipped,,813932.0399999997,,,813761.8299999995,813932.2799999991,2020-10-28T10:20:05.668Z,814078.984,1603880137,full,final-task---level-of-agreeance,5f99360d0bbbdd5ca04d3b63,participant,hcpibiaokgt8hvwk,,,,,7,,7,7,7,,,7,7,7,7,7,,7,,,,,7,7,7,7,7,7,7,7,7,7,7,7,7,,7,,7,7,,7,7,7,7,7,7,7,7,7,,7,7,7,,,,,,
,,Page5_emoji,html.Page,4_38,false,false,false,true,true,false,true,false,true,false,false,true,false,true,true,false,false,true,true,false,true,false,false,false,true,false,false,true,false,true,true,false,false,true,true,false,true,false,true,false,false,true,true,false,false,true,true,false,23,24,100,100,,skipped,,813999.6749999991,,,813761.8299999995,814000.0149999997,2020-10-28T10:20:05.736Z,814078.984,1603880137,full,final-task---level-of-agreeance,5f99360d0bbbdd5ca04d3b63,participant,hcpibiaokgt8hvwk,,,,,7,,7,7,7,,,7,7,7,7,7,,7,,,,,7,7,7,7,7,7,7,7,7,7,7,7,7,,7,,7,7,,7,7,7,7,7,7,7,7,7,7,7,7,7,,,,,,
,,Page12_emoji,html.Page,4_39,false,false,false,true,true,false,true,false,true,false,false,true,false,true,true,false,false,true,true,false,true,false,false,true,true,false,false,true,false,true,true,false,false,true,true,false,true,false,true,false,false,true,true,false,false,true,true,false,24,24,100,100,,form submission,33087.02599999891,814065.9450000003,814062.31,814078.984,847166.009999999,847166.3050000006,2020-10-28T10:20:38.903Z,847371.918,1603880137,full,final-task---level-of-agreeance,5f99360d0bbbdd5ca04d3b63,participant,hcpibiaokgt8hvwk,,,,,7,7,7,7,7,,7,7,7,7,7,7,,7,,,,,7,7,7,7,7,7,7,7,7,7,7,7,7,,7,,7,7,,7,7,7,7,7,7,7,7,7,7,7,7,7,,,,,,
,,Page12_text,html.Page,4_40,false,false,false,true,true,false,true,false,true,false,false,true,false,true,true,false,false,true,true,false,true,false,false,true,true,false,false,true,false,true,true,false,false,true,true,false,true,false,true,false,false,true,true,false,false,true,true,false,24,24,100,100,,skipped,,847240.8799999994,,,847166.009999999,847241.1350000002,2020-10-28T10:20:38.978Z,847371.918,1603880137,full,final-task---level-of-agreeance,5f99360d0bbbdd5ca04d3b63,participant,hcpibiaokgt8hvwk,,,,,7,,7,7,7,,7,7,7,7,7,7,,7,,,,,7,7,7,7,7,7,7,7,7,7,7,7,7,7,7,,7,7,,7,7,7,7,7,7,7,7,7,7,7,7,7,,,,,,
,,Page15_text,html.Page,4_41,false,false,false,true,true,false,true,false,true,false,false,true,false,true,true,false,false,true,true,false,true,false,false,true,true,false,false,true,false,true,true,false,false,true,true,false,true,false,true,false,false,true,true,false,false,true,true,false,24,24,100,100,,skipped,,847309.7899999993,,,847166.009999999,847310.0300000005,2020-10-28T10:20:39.047Z,847371.918,1603880137,full,final-task---level-of-agreeance,5f99360d0bbbdd5ca04d3b63,participant,hcpibiaokgt8hvwk,,,,,7,,7,7,7,,7,7,7,7,7,7,7,7,,,,,7,7,7,7,7,7,7,7,7,7,7,7,7,7,7,,7,7,,7,7,7,7,7,7,7,7,7,7,7,7,7,,,,,,
,,Page1_text,html.Page,4_42,true,false,false,true,true,false,true,false,true,false,false,true,false,true,true,false,false,true,true,false,true,false,false,true,true,false,false,true,false,true,true,false,false,true,true,false,true,false,true,false,false,true,true,false,false,true,true,false,25,24,100,100,,form submission,10497.791999999085,847357.8500000003,847355.244,847371.918,857869.709999999,857869.9699999997,2020-10-28T10:20:49.607Z,858120.427,1603880137,full,final-task---level-of-agreeance,5f99360d0bbbdd5ca04d3b63,participant,hcpibiaokgt8hvwk,,,,,7,7,7,7,7,,7,7,7,7,7,7,7,7,,7,,,7,7,7,7,7,7,7,7,7,7,7,7,7,7,7,,7,7,,7,7,7,7,7,7,7,7,7,7,7,7,7,,,,,,
,,Page2_text,html.Page,4_43,true,false,false,true,true,false,true,false,true,false,false,true,false,true,true,false,false,true,true,false,true,false,false,true,true,false,false,true,false,true,true,false,false,true,true,false,true,false,true,false,false,true,true,false,false,true,true,false,25,24,100,100,,skipped,,857939.1699999997,,,857869.709999999,857939.4400000001,2020-10-28T10:20:49.677Z,858120.427,1603880137,full,final-task---level-of-agreeance,5f99360d0bbbdd5ca04d3b63,participant,hcpibiaokgt8hvwk,,,,,7,,7,7,7,,7,7,7,7,7,7,7,7,,7,7,,7,7,7,7,7,7,7,7,7,7,7,7,7,7,7,,7,7,,7,7,7,7,7,7,7,7,7,7,7,7,7,,,,,,
,,Page1_emoji,html.Page,4_44,true,false,false,true,true,false,true,false,true,false,false,true,false,true,true,false,false,true,true,false,true,false,false,true,true,false,false,true,false,true,true,false,false,true,true,false,true,false,true,false,false,true,true,false,false,true,true,false,25,24,100,100,,skipped,,858005.6000000004,,,857869.709999999,858005.8399999999,2020-10-28T10:20:49.743Z,858120.427,1603880137,full,final-task---level-of-agreeance,5f99360d0bbbdd5ca04d3b63,participant,hcpibiaokgt8hvwk,,,,,7,,7,7,7,,7,7,7,7,7,7,7,7,7,7,7,,7,7,7,7,7,7,7,7,7,7,7,7,7,7,7,,7,7,,7,7,7,7,7,7,7,7,7,7,7,7,7,,,,,,
,,Page8_emoji,html.Page,4_45,true,false,false,true,true,false,true,false,true,false,false,true,false,true,true,false,false,true,true,false,true,false,false,true,true,false,false,true,false,true,true,false,false,true,true,false,true,false,true,false,false,true,true,false,false,true,true,false,25,24,100,100,,skipped,,858040.3100000003,,,857869.709999999,858040.5900000005,2020-10-28T10:20:49.778Z,858120.427,1603880137,full,final-task---level-of-agreeance,5f99360d0bbbdd5ca04d3b63,participant,hcpibiaokgt8hvwk,,,,,7,,7,7,7,7,7,7,7,7,7,7,7,7,7,7,7,,7,7,7,7,7,7,7,7,7,7,7,7,7,7,7,,7,7,,7,7,7,7,7,7,7,7,7,7,7,7,7,,,,,,
,,Page20_emoji,html.Page,4_46,true,false,false,true,true,false,true,false,true,false,false,true,false,true,true,false,false,true,true,false,true,false,false,true,true,false,false,true,false,true,true,false,false,true,true,false,true,false,true,false,false,true,true,false,false,true,true,false,25,24,100,100,,skipped,,858072.1099999992,,,857869.709999999,858072.3500000003,2020-10-28T10:20:49.810Z,858120.427,1603880137,full,final-task---level-of-agreeance,5f99360d0bbbdd5ca04d3b63,participant,hcpibiaokgt8hvwk,,,,,7,,7,7,7,7,7,7,7,7,7,7,7,7,7,7,7,,7,7,7,7,7,7,7,7,7,7,7,7,7,7,7,7,7,7,,7,7,7,7,7,7,7,7,7,7,7,7,7,,,,,,
,,Page23_text,html.Page,4_47,true,false,false,true,true,false,true,false,true,false,false,true,false,true,true,false,false,true,true,false,true,false,false,true,true,false,false,true,false,true,true,false,false,true,true,false,true,false,true,false,false,true,true,false,false,true,true,false,25,24,100,100,,skipped,,858107.2249999997,,,857869.709999999,858107.5799999998,2020-10-28T10:20:49.845Z,858120.427,1603880137,full,final-task---level-of-agreeance,5f99360d0bbbdd5ca04d3b63,participant,hcpibiaokgt8hvwk,,,,,7,,7,7,7,7,7,7,7,7,7,7,7,7,7,7,7,,7,7,7,7,7,7,7,7,7,7,7,7,7,7,7,7,7,7,7,7,7,7,7,7,7,7,7,7,7,7,7,7,,,,,,
,,Sequence,flow.Sequence,4,true,false,false,true,true,false,true,false,true,false,false,true,false,true,true,false,false,true,true,false,true,false,false,true,true,false,false,true,false,true,true,false,false,true,true,false,true,false,true,false,false,true,true,false,false,true,true,false,25,24,100,100,,completion,778454.995999999,79326.33499999974,79398.04,79414.714,857869.709999999,858109.5150000001,2020-10-28T10:20:49.847Z,858120.427,1603880137,full,final-task---level-of-agreeance,5f99360d0bbbdd5ca04d3b63,participant,hcpibiaokgt8hvwk,,,,,7,,7,7,7,7,7,7,7,7,7,7,7,7,7,7,7,,7,7,7,7,7,7,7,7,7,7,7,7,7,7,7,7,7,7,7,7,7,7,7,7,7,7,7,7,7,7,7,7,,,,,,
,,Page,html.Page,5,true,false,false,true,true,false,true,false,true,false,false,true,false,true,true,false,false,true,true,false,true,false,false,true,true,false,false,true,false,true,true,false,false,true,true,false,true,false,true,false,false,true,true,false,false,true,true,false,25,24,100,100,,form submission,15376.997999999556,858111.2749999993,858103.753,858120.427,873497.4249999996,873497.7,2020-10-28T10:21:05.235Z,873510.529,1603880137,full,final-task---level-of-agreeance,5f99360d0bbbdd5ca04d3b63,participant,hcpibiaokgt8hvwk,,,,,7,,7,7,7,7,7,7,7,7,7,7,7,7,7,7,7,,7,7,7,7,7,7,7,7,7,7,7,7,7,7,7,7,7,7,7,7,7,7,7,7,7,7,7,7,7,7,7,7,24,168,24,168,7,7
,,root,flow.Sequence,,true,false,false,true,true,false,true,false,true,false,false,true,false,true,true,false,false,true,true,false,true,false,false,true,true,false,false,true,false,true,true,false,false,true,true,false,true,false,true,false,false,true,true,false,false,true,true,false,25,24,100,100,,completion,872781.2929999996,692.880000000514,699.458,716.132,873497.4249999996,873499.3899999991,2020-10-28T10:21:05.237Z,873510.529,1603880137,full,final-task---level-of-agreeance,5f99360d0bbbdd5ca04d3b63,participant,hcpibiaokgt8hvwk,,,,,7,,7,7,7,7,7,7,7,7,7,7,7,7,7,7,7,,7,7,7,7,7,7,7,7,7,7,7,7,7,7,7,7,7,7,7,7,7,7,7,7,7,7,7,7,7,7,7,7,24,168,24,168,7,7
[object Object],"{""labjs_version"":""20.1.1"",""labjs_build"":{""flavor"":""production"",""commit"":""c48ac4ada3769e8d34489594ab03097d5f256ac7""},""location"":""https://open-lab.online/test/final-task---level-of-agreeance/5f99431e0bbbdd5ca04d3c07?fbclid=IwAR31B32ezHXQIRju6AyFdXLrW9tJa5jc0x87t4qzer41EiubQLQJJFoR_n0"",""userAgent"":""Mozilla/5.0 (Linux; Android 10; ONEPLUS A6003 Build/QKQ1.190716.003; wv) AppleWebKit/537.36 (KHTML, like Gecko) Version/4.0 Chrome/86.0.4240.110 Mobile Safari/537.36 [FB_IAB/Orca-Android;FBAV/287.0.0.22.120;]"",""platform"":""Linux armv8l"",""language"":""da-DK"",""locale"":""da-DK"",""timeZone"":""Europe/Copenhagen"",""timezoneOffset"":-60,""screen_width"":412,""screen_height"":869,""scroll_width"":980,""scroll_height"":1856,""window_innerWidth"":980,""window_innerHeight"":1881,""devicePixelRatio"":2.625}",Information letter,html.Page,0,false,false,false,false,false,false,false,false,false,false,false,false,false,false,false,false,false,false,false,false,false,false,false,false,false,false,false,false,false,false,false,false,false,false,false,false,false,false,false,false,false,false,false,false,false,false,false,false,1,24,103,207,,form submission,4640.296999993295,1524.0999999805354,1508.285,1525.003,6165.2999999932945,6170.400000002701,2020-10-28T10:08:35.736Z,6188.076,1603880038,full,final-task---level-of-agreeance,5f99360d0bbbdd5ca04d3b63,participant,hcpibiaokgt8ke0c,411444,,,,,,,,,,,,,,,,,,,,,,,,,,,,,,,,,,,,,,,,,,,,,,,,,,,,,,,,,,,
,,Informed consent,html.Page,1,false,false,false,false,false,false,false,false,false,false,false,false,false,false,false,false,false,false,false,false,false,false,false,false,false,false,false,false,false,false,false,false,false,false,false,false,false,false,false,false,false,false,false,false,false,false,false,false,1,24,100,100,,form submission,5024.524000028033,6174.500000022817,6154.648,6188.076,11212.600000028033,11214.099999982864,2020-10-28T10:08:40.780Z,11235.167,1603880038,full,final-task---level-of-agreeance,5f99360d0bbbdd5ca04d3b63,participant,hcpibiaokgt8ke0c,,undefined,,,,,,,,,,,,,,,,,,,,,,,,,,,,,,,,,,,,,,,,,,,,,,,,,,,,,,,,,,
,,Questions about participant,html.Page,2,false,false,false,false,false,false,false,false,false,false,false,false,false,false,false,false,false,false,false,false,false,false,false,false,false,false,false,false,false,false,false,false,false,false,false,false,false,false,false,false,false,false,false,false,false,false,false,false,1,24,100,100,,form submission,10375.93299998007,11215.199999976903,11218.458,11235.167,21611.09999998007,21612.699999997858,2020-10-28T10:08:51.178Z,21631.726,1603880038,full,final-task---level-of-agreeance,5f99360d0bbbdd5ca04d3b63,participant,hcpibiaokgt8ke0c,,,101,202,,,,,,,,,,,,,,,,,,,,,,,,,,,,,,,,,,,,,,,,,,,,,,,,,,,,,,,,
,,Information about the experiment,html.Page,3,false,false,false,false,false,false,false,false,false,false,false,false,false,false,false,false,false,false,false,false,false,false,false,false,false,false,false,false,false,false,false,false,false,false,false,false,false,false,false,false,false,false,false,false,false,false,false,false,1,24,100,100,,form submission,3227.073999987242,21614.300000015646,21615.007,21631.726,24858.79999998724,24860.900000028778,2020-10-28T10:08:54.427Z,25124.271,1603880038,full,final-task---level-of-agreeance,5f99360d0bbbdd5ca04d3b63,participant,hcpibiaokgt8ke0c,,,,,,,,,,,,,,,,,,,,,,,,,,,,,,,,,,,,,,,,,,,,,,,,,,,,,,,,,,,,
,,Page20_text,html.Page,4_0,false,false,false,false,false,false,false,false,false,false,false,false,false,false,false,false,false,false,false,false,false,false,false,false,false,false,false,false,false,false,false,false,false,false,false,false,false,false,true,false,false,false,false,false,false,false,false,false,2,24,100,100,,form submission,30797.22899999674,25105.199999990873,25090.859,25124.271,55921.49999999674,55922.80000000028,2020-10-28T10:09:25.488Z,56181.717,1603880038,full,final-task---level-of-agreeance,5f99360d0bbbdd5ca04d3b63,participant,hcpibiaokgt8ke0c,,,,,,1,,,,,,,7,,,,,,,,,,,,,,,,,,,,,,,,,,,,,,,,,,,,,,,,,,,,,,,
,,Page7_emoji,html.Page,4_1,false,false,false,false,false,false,false,false,false,false,false,false,false,true,false,false,false,false,false,false,false,false,false,false,false,false,false,false,false,false,false,false,false,false,false,false,false,false,true,false,false,false,false,false,false,false,false,false,3,24,100,100,,form submission,12724.183000012483,56175.30000000261,56165.01,56181.717,68905.90000001248,68907.00000000652,2020-10-28T10:09:38.473Z,69130.665,1603880038,full,final-task---level-of-agreeance,5f99360d0bbbdd5ca04d3b63,participant,hcpibiaokgt8ke0c,,,,,,1,,,,,,,7,,,,,,,,,,,,,,,,,,,,,,,,,,,,,,,,7,,,,,,,,,,,,,,,
,,Page18_text,html.Page,4_2,false,false,false,false,false,false,false,false,false,false,false,false,false,true,false,false,false,false,false,false,false,false,false,false,false,false,false,false,false,false,false,false,false,false,true,false,false,false,true,false,false,false,false,false,false,false,false,false,4,24,100,100,,form submission,38423.53500001323,69120.30000000959,69113.96,69130.665,107554.20000001322,107555.70000002626,2020-10-28T10:10:17.121Z,107842.758,1603880038,full,final-task---level-of-agreeance,5f99360d0bbbdd5ca04d3b63,participant,hcpibiaokgt8ke0c,,,,,,5,,,,,,,7,7,,,,,,,,,,,,,,,,,,,,,,,,,,,,,,,7,,,,,,,,,,,,,,,
,,Page16_emoji,html.Page,4_3,false,false,false,false,false,false,false,false,false,false,false,false,false,true,false,false,false,false,false,false,false,false,false,false,false,false,false,false,false,false,false,true,false,false,true,false,false,false,true,false,false,false,false,false,false,false,false,false,5,24,100,100,,form submission,24603.241999996273,107832.60000002338,107826.048,107842.758,132445.99999999627,132446.79999997607,2020-10-28T10:10:42.012Z,132836.387,1603880038,full,final-task---level-of-agreeance,5f99360d0bbbdd5ca04d3b63,participant,hcpibiaokgt8ke0c,,,,,,6,,,,,,,7,7,,,,7,,,,,,,,,,,,,,,,,,,,,,,,,,,7,,,,,,,,,,,,,,,
,,Page8_emoji,html.Page,4_4,false,false,false,false,false,false,false,false,false,false,false,false,false,true,false,true,false,false,false,false,false,false,false,false,false,false,false,false,false,false,false,true,false,false,true,false,false,false,true,false,false,false,false,false,false,false,false,false,6,24,100,100,,form submission,20448.71299997915,132827.9999999795,132819.681,132836.387,153285.09999997914,153286.49999998743,2020-10-28T10:11:02.852Z,154190.729,1603880038,full,final-task---level-of-agreeance,5f99360d0bbbdd5ca04d3b63,participant,hcpibiaokgt8ke0c,,,,,,2,,,,7,,,7,7,,,,7,,,,,,,,,,,,,,,,,,,,,,,,,,,7,,,,,,,,,,,,,,,
,,Page18_emoji,html.Page,4_5,false,false,false,false,false,false,false,false,false,false,false,false,false,true,false,true,false,false,false,false,false,false,false,false,false,false,false,false,false,false,false,true,false,false,true,false,false,false,true,false,false,false,false,false,false,false,false,false,6,24,100,100,,skipped,,154050.80000002636,,,153285.09999997914,154052.4999999907,2020-10-28T10:11:03.618Z,154190.729,1603880038,full,final-task---level-of-agreeance,5f99360d0bbbdd5ca04d3b63,participant,hcpibiaokgt8ke0c,,,,,,,,,7,7,,,7,7,,,,7,,,,,,,,,,,,,,,,,,,,,,,,,,,7,,,,,,,,,,,,,,,
,,Page4_emoji,html.Page,4_6,false,false,false,false,false,false,false,true,false,false,false,false,false,true,false,true,false,false,false,false,false,false,false,false,false,false,false,false,false,false,false,true,false,false,true,false,false,false,true,false,false,false,false,false,false,false,false,false,7,24,100,100,,form submission,22977.57100001938,154179.40000002272,154174.022,154190.729,177168.30000001937,177169.9999999837,2020-10-28T10:11:26.736Z,177365.862,1603880038,full,final-task---level-of-agreeance,5f99360d0bbbdd5ca04d3b63,participant,hcpibiaokgt8ke0c,,,,,,6,,,7,7,,,7,7,,,,7,,,,,,,,,,,,,,,,7,,,,,,,,,,,7,,,,,,,,,,,,,,,
,,Page9_text,html.Page,4_7,false,false,false,false,false,false,false,true,false,false,false,false,false,true,false,true,true,false,false,false,false,false,false,false,false,false,false,false,false,false,false,true,false,false,true,false,false,false,true,false,false,false,false,false,false,false,false,false,8,24,100,100,,form submission,12338.337999978306,177357.4999999837,177349.153,177365.862,189704.1999999783,189705.7999999961,2020-10-28T10:11:39.272Z,190114.716,1603880038,full,final-task---level-of-agreeance,5f99360d0bbbdd5ca04d3b63,participant,hcpibiaokgt8ke0c,,,,,,7,,7,7,7,,,7,7,,,,7,,,,,,,,,,,,,,,,7,,,,,,,,,,,7,,,,,,,,,,,,,,,
,,Page7_text,html.Page,4_8,false,false,false,false,false,false,false,true,false,false,false,false,false,true,false,true,true,false,false,false,false,false,false,false,false,false,false,false,false,false,false,true,false,false,true,false,false,false,true,false,false,false,false,false,false,false,false,false,8,24,100,100,,skipped,,189939.69999998808,,,189704.1999999783,189941.80000002962,2020-10-28T10:11:39.507Z,190114.716,1603880038,full,final-task---level-of-agreeance,5f99360d0bbbdd5ca04d3b63,participant,hcpibiaokgt8ke0c,,,,,,,,7,7,7,,,7,7,,,,7,,,,,,,,,,,,,,,7,7,,,,,,,,,,,7,,,,,,,,,,,,,,,
,,Page17_text,html.Page,4_9,false,false,false,false,false,false,false,true,false,false,false,false,false,true,false,true,true,false,false,false,false,false,false,false,false,false,false,false,false,false,false,true,true,false,true,false,false,false,true,false,false,false,false,false,false,false,false,false,9,24,100,100,,form submission,17800.184000032517,190102.69999998854,190098.006,190114.716,207914.9000000325,207916.29999998258,2020-10-28T10:11:57.482Z,208294.73,1603880038,full,final-task---level-of-agreeance,5f99360d0bbbdd5ca04d3b63,participant,hcpibiaokgt8ke0c,,,,,,5,,7,7,7,,,7,7,,,,7,,,,,,,,,,,,,,,7,7,,,,,,,,7,,,7,,,,,,,,,,,,,,,
,,Page20_emoji,html.Page,4_10,false,false,false,false,false,false,false,true,false,false,false,false,false,true,false,true,true,false,false,false,false,false,false,false,false,false,false,false,false,false,false,true,true,false,true,false,false,false,true,false,false,false,false,false,false,false,false,false,9,24,100,100,,skipped,,208135.2000000188,,,207914.9000000325,208136.50000002235,2020-10-28T10:11:57.702Z,208294.73,1603880038,full,final-task---level-of-agreeance,5f99360d0bbbdd5ca04d3b63,participant,hcpibiaokgt8ke0c,,,,,,,,7,7,7,,,7,7,,,,7,,,,,,,,,,,,,,,7,7,,,,7,,,,7,,,7,,,,,,,,,,,,,,,
,,Page12_emoji,html.Page,4_11,false,false,false,false,false,false,false,true,false,false,false,false,false,true,false,true,true,false,false,false,false,false,false,true,false,false,false,false,false,false,false,true,true,false,true,false,false,false,true,false,false,false,false,false,false,false,false,false,10,24,100,100,,form submission,44447.669999988255,208288.60000002896,208278.03,208294.73,252742.39999998827,252743.79999999655,2020-10-28T10:12:42.309Z,253130.579,1603880038,full,final-task---level-of-agreeance,5f99360d0bbbdd5ca04d3b63,participant,hcpibiaokgt8ke0c,,,,,,5,,7,7,7,7,,7,7,,,,7,,,,,,,,,,,,,,,7,7,,,,7,,,,7,,,7,,,,,,,,,,,,,,,
,,Page1_emoji,html.Page,4_12,false,true,false,false,false,false,false,true,false,false,false,false,false,true,false,true,true,false,false,false,false,false,false,true,false,false,false,false,false,false,false,true,true,false,true,false,false,false,true,false,false,false,false,false,false,false,false,false,11,24,100,100,,form submission,22079.221000011457,253121.19999999413,253113.869,253130.579,275209.80000001146,275212.40000001853,2020-10-28T10:13:04.778Z,275567.214,1603880038,full,final-task---level-of-agreeance,5f99360d0bbbdd5ca04d3b63,participant,hcpibiaokgt8ke0c,,,,,,6,,7,7,7,7,,7,7,,,,7,7,,,,,,,,,,,,,,7,7,,,,7,,,,7,,,7,,,,,,,,,,,,,,,
,,Page2_text,html.Page,4_13,false,true,true,false,false,false,false,true,false,false,false,false,false,true,false,true,true,false,false,false,false,false,false,true,false,false,false,false,false,false,false,true,true,false,true,false,false,false,true,false,false,false,false,false,false,false,false,false,12,24,100,100,,form submission,7318.286000033084,275557.29999998584,275550.507,275567.214,282885.50000003306,282886.9999999879,2020-10-28T10:13:12.453Z,283167.046,1603880038,full,final-task---level-of-agreeance,5f99360d0bbbdd5ca04d3b63,participant,hcpibiaokgt8ke0c,,,,,,,,7,7,7,7,,7,7,,,,7,7,,7,2,,,,,,,,,,,7,7,,,,7,,,,7,,,7,,,,,,,,,,,,,,,
,,Page19_text,html.Page,4_14,false,true,true,false,false,false,false,true,false,false,false,false,false,true,false,true,true,false,false,false,false,false,false,true,false,false,false,false,false,false,false,true,true,false,true,false,true,false,true,false,false,false,false,false,false,false,false,false,13,24,100,100,,form submission,1063564.8540000133,283156.799999997,283150.349,283167.046,1346731.9000000134,1346732.4999999837,2020-10-28T11:18:37.778Z,1347779.602,1603880038,full,final-task---level-of-agreeance,5f99360d0bbbdd5ca04d3b63,participant,hcpibiaokgt8ke0c,,,,,,5,,7,7,7,7,7,7,7,,,,7,7,,7,,,,,,,,,,,,7,7,,,,7,,,,7,,,7,,,,,,,,,,,,,,,
,,Page5_emoji,html.Page,4_15,false,true,true,false,false,false,false,true,false,true,false,false,false,true,false,true,true,false,false,false,false,false,false,true,false,false,false,false,false,false,false,true,true,false,true,false,true,false,true,false,false,false,false,false,false,false,false,false,14,24,100,100,,form submission,16917.39799998561,1347773.8000000245,1347762.882,1347779.602,1364696.9999999856,1364699.2999999784,2020-10-28T11:18:55.745Z,1364994.823,1603880038,full,final-task---level-of-agreeance,5f99360d0bbbdd5ca04d3b63,participant,hcpibiaokgt8ke0c,,,,,,2,,7,7,7,7,7,7,7,,,,7,7,,7,,,,,,,,,,,,7,7,,,,7,,,,7,,,7,,,,,,7,,,,,,,,,
,,Page15_text,html.Page,4_16,false,true,true,false,false,false,false,true,false,true,false,false,false,true,false,true,true,false,false,false,false,false,false,true,false,false,false,false,true,false,false,true,true,false,true,false,true,false,true,false,false,false,false,false,false,false,false,false,15,24,100,100,,form submission,68013.17700003064,1364993.1000000215,1364978.107,1364994.823,1433008.0000000307,1433008.7000000058,2020-10-28T11:20:04.055Z,1433411.08,1603880038,full,final-task---level-of-agreeance,5f99360d0bbbdd5ca04d3b63,participant,hcpibiaokgt8ke0c,,,,,,2,,7,7,7,7,7,7,7,,,7,7,7,,7,,,,,,,,,,,,7,7,,,,7,,,,7,,,7,,,,,,7,,,,,,,,,
,,Page23_text,html.Page,4_17,false,true,true,false,false,false,false,true,false,true,false,false,false,true,false,true,true,false,false,false,false,false,false,true,false,false,false,false,true,false,false,true,true,false,true,false,true,false,true,false,false,false,false,false,true,false,false,false,16,24,100,100,,form submission,17693.81999997655,1433403.6000000197,1433394.363,1433411.08,1451104.8999999766,1451106.3999999897,2020-10-28T11:20:22.152Z,1451834.233,1603880038,full,final-task---level-of-agreeance,5f99360d0bbbdd5ca04d3b63,participant,hcpibiaokgt8ke0c,,,,,,6,,7,7,7,7,7,7,7,,,7,7,7,,7,,,,,,,,,,,,7,7,,,,7,,,7,7,,,7,,,,,,7,,,,,,,,,
,,Page8_text,html.Page,4_18,false,true,true,false,false,false,false,true,false,true,false,false,false,true,false,true,true,false,false,false,false,false,false,true,false,false,false,false,true,false,false,true,true,false,true,false,true,false,true,false,false,false,false,false,true,false,false,false,16,24,100,100,,skipped,,1451626.3000000035,,,1451104.8999999766,1451632.8000000212,2020-10-28T11:20:22.679Z,1451834.233,1603880038,full,final-task---level-of-agreeance,5f99360d0bbbdd5ca04d3b63,participant,hcpibiaokgt8ke0c,,,,,,,,7,7,7,7,7,7,7,,,7,7,7,,7,,,,,,,,,,,,7,7,,,,7,7,,7,7,,,7,,,,,,7,,,,,,,,,
,,Page10_emoji,html.Page,4_19,false,true,true,false,false,false,false,true,false,true,false,false,false,true,false,true,true,false,false,true,false,false,false,true,false,false,false,false,true,false,false,true,true,false,true,false,true,false,true,false,false,false,false,false,true,false,false,false,17,24,100,100,,form submission,20841.76699997764,1451825.4000000306,1451817.516,1451834.233,1472675.9999999776,1472677.4999999907,2020-10-28T11:20:43.724Z,1473232.027,1603880038,full,final-task---level-of-agreeance,5f99360d0bbbdd5ca04d3b63,participant,hcpibiaokgt8ke0c,,,,,,6,,7,7,7,7,7,7,7,,,7,7,7,,7,,,7,,,,,,,,,7,7,,,,7,7,,7,7,,,7,,,,,,7,,,,,,,,,
,,Page19_emoji,html.Page,4_20,false,true,true,false,false,false,false,true,false,true,false,false,false,true,false,true,true,false,false,true,false,false,false,true,false,false,false,false,true,false,false,true,true,false,true,false,true,false,true,false,false,false,false,false,true,false,false,false,17,24,100,100,,skipped,,1473056.099999987,,,1472675.9999999776,1473057.0999999763,2020-10-28T11:20:44.103Z,1473232.027,1603880038,full,final-task---level-of-agreeance,5f99360d0bbbdd5ca04d3b63,participant,hcpibiaokgt8ke0c,,,,,,,,7,7,7,7,7,7,7,,,7,7,7,,7,,,7,,,,,7,,,,7,7,,,,7,7,,7,7,,,7,,,,,,7,,,,,,,,,
,,Page22_emoji,html.Page,4_21,false,true,true,false,false,false,false,true,false,true,false,false,false,true,false,true,true,false,false,true,false,false,false,true,false,false,false,false,true,false,false,true,true,false,true,false,true,false,true,false,false,false,false,true,true,false,false,false,18,24,100,100,,form submission,40709.072999996366,1473221.0000000196,1473215.311,1473232.027,1513941.0999999964,1513942.4,2020-10-28T11:21:24.988Z,1514248.375,1603880038,full,final-task---level-of-agreeance,5f99360d0bbbdd5ca04d3b63,participant,hcpibiaokgt8ke0c,,,,,,5,,7,7,7,7,7,7,7,,,7,7,7,,7,,,7,,,7,,7,,,,7,7,,,,7,7,,7,7,,,7,,,,,,7,,,,,,,,,
,,Page13_emoji,html.Page,4_22,false,true,true,false,false,false,false,true,false,true,false,false,false,true,false,true,true,false,false,true,false,false,false,true,false,true,false,false,true,false,false,true,true,false,true,false,true,false,true,false,false,false,false,true,true,false,false,false,19,24,100,100,,form submission,39530.3250000244,1514242.1999999788,1514231.697,1514248.375,1553778.7000000244,1553780.299999984,2020-10-28T11:22:04.826Z,1554163.588,1603880038,full,final-task---level-of-agreeance,5f99360d0bbbdd5ca04d3b63,participant,hcpibiaokgt8ke0c,,,,,,6,7,7,7,7,7,7,7,7,,,7,7,7,,7,,,7,,,7,,7,,,,7,7,,,,7,7,,7,7,,,7,,,,,,7,,,,,,,,,
,,Page5_text,html.Page,4_23,false,true,true,false,false,false,false,true,false,true,false,false,false,true,false,true,true,false,false,true,false,false,false,true,false,true,false,false,true,false,false,true,true,false,true,false,true,false,true,false,false,false,false,true,true,false,false,false,19,24,100,100,,skipped,,1554020.0000000186,,,1553778.7000000244,1554020.9000000032,2020-10-28T11:22:05.067Z,1554163.588,1603880038,full,final-task---level-of-agreeance,5f99360d0bbbdd5ca04d3b63,participant,hcpibiaokgt8ke0c,,,,,,,7,7,7,7,7,7,7,7,,,7,7,7,,7,,,7,,,7,,7,,,,7,7,7,,,7,7,,7,7,,,7,,,,,,7,,,,,,,,,
,,Page6_emoji,html.Page,4_24,false,true,true,false,false,false,false,true,false,true,false,true,false,true,false,true,true,false,false,true,false,false,false,true,false,true,false,false,true,false,false,true,true,false,true,false,true,false,true,false,false,false,false,true,true,false,false,false,20,24,100,100,,form submission,12170.012000012677,1554151.899999997,1554146.872,1554163.588,1566333.6000000127,1566335.1000000257,2020-10-28T11:22:17.381Z,1566616.521,1603880038,full,final-task---level-of-agreeance,5f99360d0bbbdd5ca04d3b63,participant,hcpibiaokgt8ke0c,,,,,,2,7,7,7,7,7,7,7,7,,,7,7,7,,7,,,7,,,7,,7,,,,7,7,7,,,7,7,,7,7,,,7,,,,7,,7,,,,,,,,,
,,Page14_text,html.Page,4_25,false,true,true,false,false,false,false,true,false,true,false,true,false,true,false,true,true,false,false,true,false,false,false,true,false,true,true,false,true,false,false,true,true,false,true,false,true,false,true,false,false,false,false,true,true,false,false,false,21,24,100,100,,form submission,58933.07900002762,1566612.0000000228,1566599.805,1566616.521,1625549.6000000276,1625550.9999999776,2020-10-28T11:23:16.597Z,1626223.536,1603880038,full,final-task---level-of-agreeance,5f99360d0bbbdd5ca04d3b63,participant,hcpibiaokgt8ke0c,,,,,,4,7,7,7,7,7,7,7,7,,,7,7,7,,7,,,7,,7,7,,7,,,,7,7,7,,,7,7,,7,7,,,7,,,,7,,7,,,,,,,,,
,,Page23_emoji,html.Page,4_26,false,true,true,false,false,false,false,true,false,true,false,true,false,true,false,true,true,false,false,true,false,false,false,true,false,true,true,false,true,false,false,true,true,false,true,false,true,false,true,false,false,false,false,true,true,false,false,false,21,24,100,100,,skipped,,1625950.300000026,,,1625549.6000000276,1625951.2000000104,2020-10-28T11:23:16.997Z,1626223.536,1603880038,full,final-task---level-of-agreeance,5f99360d0bbbdd5ca04d3b63,participant,hcpibiaokgt8ke0c,,,,,,,7,7,7,7,7,7,7,7,,,7,7,7,,7,,,7,,7,7,,7,,,,7,7,7,,,7,7,,7,7,,,7,,,7,7,,7,,,,,,,,,
,,Page10_text,html.Page,4_27,false,true,true,false,false,false,false,true,false,true,false,true,false,true,false,true,true,false,false,true,false,false,false,true,false,true,true,false,true,false,false,true,true,false,true,false,true,false,true,false,false,false,false,true,true,false,false,false,21,24,100,100,,skipped,,1626081.200000015,,,1625549.6000000276,1626082.6000000234,2020-10-28T11:23:17.128Z,1626223.536,1603880038,full,final-task---level-of-agreeance,5f99360d0bbbdd5ca04d3b63,participant,hcpibiaokgt8ke0c,,,,,,,7,7,7,7,7,7,7,7,,,7,7,7,,7,,,7,,7,7,,7,,,,7,7,7,,,7,7,,7,7,,,7,,,7,7,,7,,7,,,,,,,
,,Page3_emoji,html.Page,4_28,false,true,true,false,false,true,false,true,false,true,false,true,false,true,false,true,true,false,false,true,false,false,false,true,false,true,true,false,true,false,false,true,true,false,true,false,true,false,true,false,false,false,false,true,true,false,false,false,22,24,100,100,,form submission,43000.964000011096,1626213.5000000126,1626206.825,1626223.536,1669224.5000000112,1669226.2000000337,2020-10-28T11:24:00.272Z,1669520.047,1603880038,full,final-task---level-of-agreeance,5f99360d0bbbdd5ca04d3b63,participant,hcpibiaokgt8ke0c,,,,,,5,7,7,7,7,7,7,7,7,,7,7,7,7,,7,,,7,,7,7,,7,,,,7,7,7,,,7,7,,7,7,,,7,,,7,7,,7,,7,,,,,,,
,,Page24_text,html.Page,4_29,false,true,true,false,false,true,false,true,false,true,false,true,false,true,false,true,true,false,false,true,false,false,false,true,false,true,true,false,true,false,false,true,true,false,true,false,true,false,true,false,false,false,false,true,true,false,true,false,23,24,100,100,,form submission,40550.053000011714,1669516.6999999783,1669503.334,1669520.047,1710070.1000000117,1710071.7000000295,2020-10-28T11:24:41.118Z,1710855.837,1603880038,full,final-task---level-of-agreeance,5f99360d0bbbdd5ca04d3b63,participant,hcpibiaokgt8ke0c,,,,,,3,7,7,7,7,7,7,7,7,,7,7,7,7,,7,,,7,,7,7,,7,,,,7,7,7,,7,7,7,,7,7,,,7,,,7,7,,7,,7,,,,,,,
,,Page13_text,html.Page,4_30,false,true,true,false,false,true,false,true,false,true,false,true,false,true,false,true,true,false,false,true,false,false,false,true,false,true,true,false,true,false,false,true,true,false,true,false,true,false,true,false,false,false,false,true,true,false,true,false,23,24,100,100,,skipped,,1710499.4999999763,,,1710070.1000000117,1710500.6000000285,2020-10-28T11:24:41.546Z,1710855.837,1603880038,full,final-task---level-of-agreeance,5f99360d0bbbdd5ca04d3b63,participant,hcpibiaokgt8ke0c,,,,,,,7,7,7,7,7,7,7,7,,7,7,7,7,,7,,,7,,7,7,,7,,,,7,7,7,,7,7,7,,7,7,,,7,,,7,7,,7,,7,7,,,,,,
,,Page6_text,html.Page,4_31,false,true,true,false,false,true,false,true,false,true,false,true,false,true,false,true,true,false,false,true,false,false,false,true,false,true,true,false,true,false,false,true,true,false,true,false,true,false,true,false,false,false,false,true,true,false,true,false,23,24,100,100,,skipped,,1710661.699999997,,,1710070.1000000117,1710662.4000000302,2020-10-28T11:24:41.708Z,1710855.837,1603880038,full,final-task---level-of-agreeance,5f99360d0bbbdd5ca04d3b63,participant,hcpibiaokgt8ke0c,,,,,7,,7,7,7,7,7,7,7,7,,7,7,7,7,,7,,,7,,7,7,,7,,,,7,7,7,,7,7,7,,7,7,,,7,,,7,7,,7,,7,7,,,,,,
,,Page11_emoji,html.Page,4_32,false,true,true,false,false,true,false,true,false,true,false,true,false,true,false,true,true,false,false,true,false,true,false,true,false,true,true,false,true,false,false,true,true,false,true,false,true,false,true,false,false,false,false,true,true,false,true,false,24,24,100,100,,form submission,30340.563000015216,1710848.500000022,1710839.122,1710855.837,1741196.4000000153,1741198.000000033,2020-10-28T11:25:12.244Z,1742925.947,1603880038,full,final-task---level-of-agreeance,5f99360d0bbbdd5ca04d3b63,participant,hcpibiaokgt8ke0c,,,,,7,5,7,7,7,7,7,7,7,7,,7,7,7,7,,7,,,7,,7,7,,7,,,,7,7,7,,7,7,7,,7,7,7,,7,,,7,7,,7,,7,7,,,,,,
,,Page17_emoji,html.Page,4_33,false,true,true,false,false,true,false,true,false,true,false,true,false,true,false,true,true,false,false,true,false,true,false,true,false,true,true,false,true,false,false,true,true,false,true,false,true,false,true,false,false,false,false,true,true,false,true,false,24,24,100,100,,skipped,,1741981.1999999802,,,1741196.4000000153,1741982.100000023,2020-10-28T11:25:13.028Z,1742925.947,1603880038,full,final-task---level-of-agreeance,5f99360d0bbbdd5ca04d3b63,participant,hcpibiaokgt8ke0c,,,,,7,,7,7,7,7,7,7,7,7,,7,7,7,7,,7,,,7,,7,7,,7,7,,,7,7,7,,7,7,7,,7,7,7,,7,,,7,7,,7,,7,7,,,,,,
,,Page1_text,html.Page,4_34,false,true,true,false,false,true,false,true,false,true,false,true,false,true,false,true,true,false,false,true,false,true,false,true,false,true,true,false,true,false,false,true,true,false,true,false,true,false,true,false,false,false,false,true,true,false,true,false,24,24,100,100,,skipped,,1742129.2000000249,,,1741196.4000000153,1742130.1000000094,2020-10-28T11:25:13.176Z,1742925.947,1603880038,full,final-task---level-of-agreeance,5f99360d0bbbdd5ca04d3b63,participant,hcpibiaokgt8ke0c,,,,,7,,7,7,7,7,7,7,7,7,,7,7,7,7,7,7,,,7,,7,7,,7,7,,,7,7,7,,7,7,7,,7,7,7,,7,,,7,7,,7,,7,7,,,,,,
,,Page14_emoji,html.Page,4_35,false,true,true,false,false,true,false,true,false,true,false,true,false,true,false,true,true,false,false,true,false,true,false,true,false,true,true,false,true,false,false,true,true,false,true,false,true,false,true,false,false,false,false,true,true,false,true,false,24,24,100,100,,skipped,,1742280.700000003,,,1741196.4000000153,1742281.399999978,2020-10-28T11:25:13.327Z,1742925.947,1603880038,full,final-task---level-of-agreeance,5f99360d0bbbdd5ca04d3b63,participant,hcpibiaokgt8ke0c,,,,,7,,7,7,7,7,7,7,7,7,7,7,7,7,7,7,7,,,7,,7,7,,7,7,,,7,7,7,,7,7,7,,7,7,7,,7,,,7,7,,7,,7,7,,,,,,
,,Page3_text,html.Page,4_36,false,true,true,false,false,true,false,true,false,true,false,true,false,true,false,true,true,false,false,true,false,true,false,true,false,true,true,false,true,false,false,true,true,false,true,false,true,false,true,false,false,false,false,true,true,false,true,false,24,24,100,100,,skipped,,1742430.3000000073,,,1741196.4000000153,1742431.099999987,2020-10-28T11:25:13.477Z,1742925.947,1603880038,full,final-task---level-of-agreeance,5f99360d0bbbdd5ca04d3b63,participant,hcpibiaokgt8ke0c,,,,,7,,7,7,7,7,7,7,7,7,7,7,7,7,7,7,7,,,7,,7,7,,7,7,,,7,7,7,,7,7,7,,7,7,7,,7,,,7,7,,7,7,7,7,,,,,,
