meta,sender,sender_type,sender_id,page1text,page1emoji,page2text,page2emoji,page3text,page3emoji,page4text,page4emoji,page5text,page5emoji,page6text,page6emoji,page7text,page7emoji,page8text,page8emoji,page9text,page9emoji,page10text,page10emoji,page11text,page11emoji,page12text,page12emoji,page13text,page13emoji,page14text,page14emoji,page15text,page15emoji,page16text,page16emoji,page17text,page17emoji,page18text,page18emoji,page19text,page19emoji,page20text,page20emoji,page21text,page21emoji,page22text,page22emoji,page23text,page23emoji,page24text,page24emoji,questions,maxquestions,,ended_on,duration,time_run,time_render,time_show,time_end,time_commit,timestamp,time_switch,openLabId,type,task,project,status,code,i-have-received-written-information-about-the-purpose-and-methods-of-the-experiment-i-know-that-my-participation-is-voluntary-and-that-i-can-withdraw-from-the-experiment-at-any-time-without-having-to-give-a-reason-i-give-my-consent-to-participate-in-this-study-,what-is-your-sex,what-is-your-age-group
"{""labjs_version"":""20.1.1"",""labjs_build"":{""flavor"":""production"",""commit"":""c48ac4ada3769e8d34489594ab03097d5f256ac7""},""location"":""https://open-lab.online/test/task-on-level-of-agreeance/5f993b860bbbdd5ca04d3b99"",""userAgent"":""Mozilla/5.0 (Windows NT 10.0; Win64; x64) AppleWebKit/537.36 (KHTML, like Gecko) Chrome/86.0.4240.111 Safari/537.36"",""platform"":""Win32"",""language"":""da-DK"",""locale"":""da"",""timeZone"":""Europe/Copenhagen"",""timezoneOffset"":-60,""screen_width"":1920,""screen_height"":1080,""scroll_width"":1920,""scroll_height"":913,""window_innerWidth"":1920,""window_innerHeight"":937,""devicePixelRatio"":1}",Information letter,html.Page,0,false,false,false,false,false,false,false,false,false,false,false,false,false,false,false,false,false,false,false,false,false,false,false,false,false,false,false,false,false,false,false,false,false,false,false,false,false,false,false,false,false,false,false,false,false,false,false,false,1,24,,form submission,2751.690000000004,895.7999999993262,889.363,922.705,3674.395000000004,3675.0599999995757,2020-10-28T09:36:09.685Z,3690.668,1603877893,incremental,task-on-level-of-agreeance,5f99360d0bbbdd5ca04d3b63,participant,hcpibiaokgt7ese1,,,
,Informed consent,html.Page,1,false,false,false,false,false,false,false,false,false,false,false,false,false,false,false,false,false,false,false,false,false,false,false,false,false,false,false,false,false,false,false,false,false,false,false,false,false,false,false,false,false,false,false,false,false,false,false,false,1,24,,form submission,2209.8519999992327,3675.6249999998545,3656.018,3690.668,5900.519999999233,5900.894999999764,2020-10-28T09:36:11.910Z,5906.007,1603877893,incremental,task-on-level-of-agreeance,5f99360d0bbbdd5ca04d3b63,participant,hcpibiaokgt7ese1,undefined,,
,Questions about participant,html.Page,2,false,false,false,false,false,false,false,false,false,false,false,false,false,false,false,false,false,false,false,false,false,false,false,false,false,false,false,false,false,false,false,false,false,false,false,false,false,false,false,false,false,false,false,false,false,false,false,false,1,24,,form submission,4525.567999999612,5901.219999999739,5889.391,5906.007,10431.574999999611,10432.054999999309,2020-10-28T09:36:16.442Z,10439.347,1603877893,incremental,task-on-level-of-agreeance,5f99360d0bbbdd5ca04d3b63,participant,hcpibiaokgt7ese1,,undefined,undefined
meta,sender,sender_type,sender_id,page1text,page1emoji,page2text,page2emoji,page3text,page3emoji,page4text,page4emoji,page5text,page5emoji,page6text,page6emoji,page7text,page7emoji,page8text,page8emoji,page9text,page9emoji,page10text,page10emoji,page11text,page11emoji,page12text,page12emoji,page13text,page13emoji,page14text,page14emoji,page15text,page15emoji,page16text,page16emoji,page17text,page17emoji,page18text,page18emoji,page19text,page19emoji,page20text,page20emoji,page21text,page21emoji,page22text,page22emoji,page23text,page23emoji,page24text,page24emoji,questions,maxquestions,,ended_on,duration,time_run,time_render,time_show,time_end,time_commit,timestamp,time_switch,openLabId,type,task,project,status,code,i-have-received-written-information-about-the-purpose-and-methods-of-the-experiment-i-know-that-my-participation-is-voluntary-and-that-i-can-withdraw-from-the-experiment-at-any-time-without-having-to-give-a-reason-i-give-my-consent-to-participate-in-this-study-,what-is-your-sex,what-is-your-age-group,url,sex,age,page4textanswer,how-much-do-you-agree-with-the-statement
"{""labjs_version"":""20.1.1"",""labjs_build"":{""flavor"":""production"",""commit"":""c48ac4ada3769e8d34489594ab03097d5f256ac7""},""location"":""https://open-lab.online/test/final-task---level-of-agreeance/5f993d6d0bbbdd5ca04d3bb4?fbclid=IwAR2qmwuF_E1CaALiOpQ06_EdrCYv0Dhc6aYjTO-r3AH1bfdQWDMJt31RU-c"",""userAgent"":""Mozilla/5.0 (Windows NT 10.0; Win64; x64; rv:81.0) Gecko/20100101 Firefox/81.0"",""platform"":""Win32"",""language"":""da"",""locale"":""da"",""timeZone"":""Europe/Copenhagen"",""timezoneOffset"":-60,""screen_width"":1280,""screen_height"":853,""scroll_width"":1280,""scroll_height"":692,""window_innerWidth"":1280,""window_innerHeight"":740,""devicePixelRatio"":1.5}",Information letter,html.Page,0,false,false,false,false,false,false,false,false,false,false,false,false,false,false,false,false,false,false,false,false,false,false,false,false,false,false,false,false,false,false,false,false,false,false,false,false,false,false,false,false,false,false,false,false,false,false,false,false,1,24,,form submission,14662.84,2777,2779.52,2846.16,17509,17511,2020-10-28T09:44:31.287Z,17524.14,1603878344,incremental,final-task---level-of-agreeance,5f99360d0bbbdd5ca04d3b63,participant,hcpibiaokgt7p5m7,,,,[object Object],103,207,,
,Informed consent,html.Page,1,false,false,false,false,false,false,false,false,false,false,false,false,false,false,false,false,false,false,false,false,false,false,false,false,false,false,false,false,false,false,false,false,false,false,false,false,false,false,false,false,false,false,false,false,false,false,false,false,1,24,,form submission,2918.8600000000006,17516,17507.48,17524.14,20443,20444,2020-10-28T09:44:34.219Z,20456.4,1603878344,incremental,final-task---level-of-agreeance,5f99360d0bbbdd5ca04d3b63,participant,hcpibiaokgt7p5m7,undefined,,,,100,100,,
,Questions about participant,html.Page,2,false,false,false,false,false,false,false,false,false,false,false,false,false,false,false,false,false,false,false,false,false,false,false,false,false,false,false,false,false,false,false,false,false,false,false,false,false,false,false,false,false,false,false,false,false,false,false,false,1,24,,form submission,7185.5999999999985,20445,20439.74,20456.4,27642,27643,2020-10-28T09:44:41.418Z,27670.38,1603878344,incremental,final-task---level-of-agreeance,5f99360d0bbbdd5ca04d3b63,participant,hcpibiaokgt7p5m7,,101,202,,100,100,,
,Information about the experiment,html.Page,3,false,false,false,false,false,false,false,false,false,false,false,false,false,false,false,false,false,false,false,false,false,false,false,false,false,false,false,false,false,false,false,false,false,false,false,false,false,false,false,false,false,false,false,false,false,false,false,false,1,24,,form submission,1659.619999999999,27643,27653.72,27670.38,29330,29331,2020-10-28T09:44:43.107Z,29436.4,1603878344,incremental,final-task---level-of-agreeance,5f99360d0bbbdd5ca04d3b63,participant,hcpibiaokgt7p5m7,,,,,100,100,,
,Page4_text,html.Page,4_0,false,false,false,false,false,false,true,false,false,false,false,false,false,false,false,false,false,false,false,false,false,false,false,false,false,false,false,false,false,false,false,false,false,false,false,false,false,false,false,false,false,false,false,false,false,false,false,false,2,24,,form submission,44528.6,29433,29434.08,29436.4,73965,73967,2020-10-28T09:45:27.743Z,74169.94,1603878344,incremental,final-task---level-of-agreeance,5f99360d0bbbdd5ca04d3b63,participant,hcpibiaokgt7p5m7,,,,,100,100,7,5
"{""labjs_version"":""20.1.1"",""labjs_build"":{""flavor"":""production"",""commit"":""c48ac4ada3769e8d34489594ab03097d5f256ac7""},""location"":""https://open-lab.online/test/final-task---level-of-agreeance/5f993dd00bbbdd5ca04d3bc7?fbclid=IwAR2x4f52fuJi2Y6tkaGv4X0ELka-x0n6uWt1m9iZYpBs0vwzE2-MVMEFjSw"",""userAgent"":""Mozilla/5.0 (Windows NT 10.0; Win64; x64) AppleWebKit/537.36 (KHTML, like Gecko) Chrome/86.0.4240.111 Safari/537.36"",""platform"":""Win32"",""language"":""da-DK"",""locale"":""da"",""timeZone"":""Europe/Copenhagen"",""timezoneOffset"":-60,""screen_width"":1280,""screen_height"":720,""scroll_width"":1280,""scroll_height"":578,""window_innerWidth"":1280,""window_innerHeight"":578,""devicePixelRatio"":1.5}",Information letter,html.Page,0,false,false,false,false,false,false,false,false,false,false,false,false,false,false,false,false,false,false,false,false,false,false,false,false,false,false,false,false,false,false,false,false,false,false,false,false,false,false,false,false,false,false,false,false,false,false,false,false,1,24,,form submission,9653.386000000308,1012.7950000023702,999.971,1052.319,10705.705000000307,10713.154999997641,2020-10-28T09:46:04.388Z,10718.829,1603878977,incremental,final-task---level-of-agreeance,5f99360d0bbbdd5ca04d3b63,participant,hcpibiaokgt7r3if,,,,[object Object],103,207,,
,Informed consent,html.Page,1,false,false,false,false,false,false,false,false,false,false,false,false,false,false,false,false,false,false,false,false,false,false,false,false,false,false,false,false,false,false,false,false,false,false,false,false,false,false,false,false,false,false,false,false,false,false,false,false,1,24,,form submission,10440.346000000687,10713.850000000093,10701.345,10718.829,21159.175000000687,21159.869999995863,2020-10-28T09:46:14.834Z,21170.411,1603878977,incremental,final-task---level-of-agreeance,5f99360d0bbbdd5ca04d3b63,participant,hcpibiaokgt7r3if,undefined,,,,100,100,,
,Questions about participant,html.Page,2,false,false,false,false,false,false,false,false,false,false,false,false,false,false,false,false,false,false,false,false,false,false,false,false,false,false,false,false,false,false,false,false,false,false,false,false,false,false,false,false,false,false,false,false,false,false,false,false,1,24,,form submission,6275.208999998598,21160.27000000031,21152.986,21170.411,27445.6199999986,27446.2149999963,2020-10-28T09:46:21.121Z,27451.828,1603878977,incremental,final-task---level-of-agreeance,5f99360d0bbbdd5ca04d3b63,participant,hcpibiaokgt7r3if,,102,202,,100,100,,
"{""labjs_version"":""20.1.1"",""labjs_build"":{""flavor"":""production"",""commit"":""c48ac4ada3769e8d34489594ab03097d5f256ac7""},""location"":""https://open-lab.online/test/final-task---level-of-agreeance/5f993e370bbbdd5ca04d3bcc?fbclid=IwAR0lBqswkRqPoxy7YUZ5xl94J2-Tqd-af0MeCB4PaBV0HuzyI3Q2aPiqtMA"",""userAgent"":""Mozilla/5.0 (iPhone; CPU iPhone OS 13_5_1 like Mac OS X) AppleWebKit/605.1.15 (KHTML, like Gecko) Mobile/15E148 [FBAN/FBIOS;FBDV/iPhone8,1;FBMD/iPhone;FBSN/iOS;FBSV/13.5.1;FBSS/2;FBID/phone;FBLC/es_LA;FBOP/5]"",""platform"":""iPhone"",""language"":""es"",""locale"":""es"",""timeZone"":""Europe/Copenhagen"",""timezoneOffset"":-60,""screen_width"":375,""screen_height"":667,""scroll_width"":980,""scroll_height"":1355,""window_innerWidth"":980,""window_innerHeight"":1403,""devicePixelRatio"":2}",Information letter,html.Page,0,false,false,false,false,false,false,false,false,false,false,false,false,false,false,false,false,false,false,false,false,false,false,false,false,false,false,false,false,false,false,false,false,false,false,false,false,false,false,false,false,false,false,false,false,false,false,false,false,1,24,,form submission,39775,887,902,941,40716,40721,2020-10-28T09:48:15.869Z,40753,1603879085,incremental,final-task---level-of-agreeance,5f99360d0bbbdd5ca04d3b63,participant,hcpibiaokgt7tjb6,,,,[object Object],103,207,,
,Informed consent,html.Page,1,false,false,false,false,false,false,false,false,false,false,false,false,false,false,false,false,false,false,false,false,false,false,false,false,false,false,false,false,false,false,false,false,false,false,false,false,false,false,false,false,false,false,false,false,false,false,false,false,1,24,,form submission,6395,40726,40739,40753,47148,47154,2020-10-28T09:48:22.302Z,47199,1603879085,incremental,final-task---level-of-agreeance,5f99360d0bbbdd5ca04d3b63,participant,hcpibiaokgt7tjb6,undefined,,,,100,100,,
meta,sender,sender_type,sender_id,page1text,page1emoji,page2text,page2emoji,page3text,page3emoji,page4text,page4emoji,page5text,page5emoji,page6text,page6emoji,page7text,page7emoji,page8text,page8emoji,page9text,page9emoji,page10text,page10emoji,page11text,page11emoji,page12text,page12emoji,page13text,page13emoji,page14text,page14emoji,page15text,page15emoji,page16text,page16emoji,page17text,page17emoji,page18text,page18emoji,page19text,page19emoji,page20text,page20emoji,page21text,page21emoji,page22text,page22emoji,page23text,page23emoji,page24text,page24emoji,questions,maxquestions,,ended_on,duration,time_run,time_render,time_show,time_end,time_commit,timestamp,time_switch,openLabId,type,task,project,status,code,i-have-received-written-information-about-the-purpose-and-methods-of-the-experiment-i-know-that-my-participation-is-voluntary-and-that-i-can-withdraw-from-the-experiment-at-any-time-without-having-to-give-a-reason-i-give-my-consent-to-participate-in-this-study-,what-is-your-sex,what-is-your-age-group,url,sex,age,page4textanswer,how-much-do-you-agree-with-the-statement,page17emojianswer,page9textanswer
"{""labjs_version"":""20.1.1"",""labjs_build"":{""flavor"":""production"",""commit"":""c48ac4ada3769e8d34489594ab03097d5f256ac7""},""location"":""https://open-lab.online/test/final-task---level-of-agreeance/5f993eb90bbbdd5ca04d3bda?fbclid=IwAR2yJtseE7LTbRSRphN7i5Jrbs527sxO06KusD5yHI2kkNJnHuyaizc59LY"",""userAgent"":""Mozilla/5.0 (Windows NT 10.0; Win64; x64) AppleWebKit/537.36 (KHTML, like Gecko) Chrome/86.0.4240.111 Safari/537.36"",""platform"":""Win32"",""language"":""en-US"",""locale"":""en-US"",""timeZone"":""Europe/Copenhagen"",""timezoneOffset"":-60,""screen_width"":1920,""screen_height"":1080,""scroll_width"":1920,""scroll_height"":913,""window_innerWidth"":1920,""window_innerHeight"":937,""devicePixelRatio"":1}",Information letter,html.Page,0,false,false,false,false,false,false,false,false,false,false,false,false,false,false,false,false,false,false,false,false,false,false,false,false,false,false,false,false,false,false,false,false,false,false,false,false,false,false,false,false,false,false,false,false,false,false,false,false,1,24,,form submission,4537.339999993415,1049.555000005057,1061.097,1077.84,5615.179999993416,5615.799999999581,2020-10-28T09:49:50.574Z,5626.33,1603878662,incremental,final-task---level-of-agreeance,5f99360d0bbbdd5ca04d3b63,participant,hcpibiaokgt7wbie,,,,[object Object],103,207,,,,
,Informed consent,html.Page,1,false,false,false,false,false,false,false,false,false,false,false,false,false,false,false,false,false,false,false,false,false,false,false,false,false,false,false,false,false,false,false,false,false,false,false,false,false,false,false,false,false,false,false,false,false,false,false,false,1,24,,form submission,8174.200000007711,5616.459999990184,5610.031,5626.33,13800.530000007711,13801.124999998137,2020-10-28T09:49:58.760Z,13806.89,1603878662,incremental,final-task---level-of-agreeance,5f99360d0bbbdd5ca04d3b63,participant,hcpibiaokgt7wbie,undefined,,,,100,100,,,,
,Questions about participant,html.Page,2,false,false,false,false,false,false,false,false,false,false,false,false,false,false,false,false,false,false,false,false,false,false,false,false,false,false,false,false,false,false,false,false,false,false,false,false,false,false,false,false,false,false,false,false,false,false,false,false,1,24,,form submission,9060.73999999337,13801.78499998874,13790.263,13806.89,22867.62999999337,22868.43500001123,2020-10-28T09:50:07.827Z,22870.7,1603878662,incremental,final-task---level-of-agreeance,5f99360d0bbbdd5ca04d3b63,participant,hcpibiaokgt7wbie,,101,202,,100,100,,,,
,Information about the experiment,html.Page,3,false,false,false,false,false,false,false,false,false,false,false,false,false,false,false,false,false,false,false,false,false,false,false,false,false,false,false,false,false,false,false,false,false,false,false,false,false,false,false,false,false,false,false,false,false,false,false,false,1,24,,form submission,3569.049999990453,22869.189999997616,22854.366,22870.7,26439.749999990454,26440.455000003567,2020-10-28T09:50:11.399Z,26552.825,1603878662,incremental,final-task---level-of-agreeance,5f99360d0bbbdd5ca04d3b63,participant,hcpibiaokgt7wbie,,,,,100,100,,,,
,Page17_emoji,html.Page,4_0,false,false,false,false,false,false,false,false,false,false,false,false,false,false,false,false,false,false,false,false,false,false,false,false,false,false,false,false,false,false,false,false,false,true,false,false,false,false,false,false,false,false,false,false,false,false,false,false,2,24,,form submission,19018.730000002262,26538.95499999635,26536.164,26552.825,45571.55500000226,45572.61999999173,2020-10-28T09:50:30.531Z,45663.187,1603878662,incremental,final-task---level-of-agreeance,5f99360d0bbbdd5ca04d3b63,participant,hcpibiaokgt7wbie,,,,,100,100,,7,7,
,Page9_text,html.Page,4_1,false,false,false,false,false,false,false,false,false,false,false,false,false,false,false,false,true,false,false,false,false,false,false,false,false,false,false,false,false,false,false,false,false,true,false,false,false,false,false,false,false,false,false,false,false,false,false,false,3,24,,form submission,31300.768000013813,45652.99500001129,45646.48,45663.187,76963.95500001381,76964.80499999598,2020-10-28T09:51:01.924Z,77169.484,1603878662,incremental,final-task---level-of-agreeance,5f99360d0bbbdd5ca04d3b63,participant,hcpibiaokgt7wbie,,,,,100,100,,3,7,7
meta,sender,sender_type,sender_id,page1text,page1emoji,page2text,page2emoji,page3text,page3emoji,page4text,page4emoji,page5text,page5emoji,page6text,page6emoji,page7text,page7emoji,page8text,page8emoji,page9text,page9emoji,page10text,page10emoji,page11text,page11emoji,page12text,page12emoji,page13text,page13emoji,page14text,page14emoji,page15text,page15emoji,page16text,page16emoji,page17text,page17emoji,page18text,page18emoji,page19text,page19emoji,page20text,page20emoji,page21text,page21emoji,page22text,page22emoji,page23text,page23emoji,page24text,page24emoji,questions,maxquestions,,ended_on,duration,time_run,time_render,time_show,time_end,time_commit,timestamp,time_switch,openLabId,type,task,project,status,code,i-have-received-written-information-about-the-purpose-and-methods-of-the-experiment-i-know-that-my-participation-is-voluntary-and-that-i-can-withdraw-from-the-experiment-at-any-time-without-having-to-give-a-reason-i-give-my-consent-to-participate-in-this-study-,what-is-your-sex,what-is-your-age-group,url,sex,age,page4textanswer,how-much-do-you-agree-with-the-statement,page17emojianswer,page9textanswer,confirmationCode,page6textanswer,page13emojianswer,page18emojianswer,page8emojianswer,page12emojianswer,page19textanswer,page20textanswer,page18textanswer,page14emojianswer,page3emojianswer,page15textanswer,page16emojianswer,page1emojianswer,page1textanswer,page2textanswer,CK,page15emojianswer,page10emojianswer,page21emojianswer,page14textanswer,page22emojianswer,page11textanswer,page19emojianswer,page9emojianswer,page22textanswer,page7textanswer,page4emojianswer,page5textanswer,page12textanswer,page24textanswer,page20emojianswer,page8textanswer,page16textanswer,page23textanswer,page17textanswer,page11emojianswer,page24emojianswer,page7emojianswer,page21textanswer,page23emojianswer,page6emojianswer,page2emojianswer,page5emojianswer,page3textanswer,page10textanswer,page13textanswer,totaltextanswers,totaltextscore,totalemojianswers,totalemojiscore,emojiscore,textscore
"{""labjs_version"":""20.1.1"",""labjs_build"":{""flavor"":""production"",""commit"":""c48ac4ada3769e8d34489594ab03097d5f256ac7""},""location"":""https://open-lab.online/test/final-task---level-of-agreeance/5f993ecc0bbbdd5ca04d3bde?fbclid=IwAR1dvx42-WM83xvS0RuVgqAqy942dF76jhzdyJzkGSsoFJyamOLftcc_1kE"",""userAgent"":""Mozilla/5.0 (Macintosh; Intel Mac OS X 10_15_6) AppleWebKit/537.36 (KHTML, like Gecko) Chrome/86.0.4240.111 Safari/537.36"",""platform"":""MacIntel"",""language"":""da-DK"",""locale"":""da"",""timeZone"":""Europe/Copenhagen"",""timezoneOffset"":-60,""screen_width"":1440,""screen_height"":900,""scroll_width"":1393,""scroll_height"":741,""window_innerWidth"":1393,""window_innerHeight"":765,""devicePixelRatio"":2}",Information letter,html.Page,0,false,false,false,false,false,false,false,false,false,false,false,false,false,false,false,false,false,false,false,false,false,false,false,false,false,false,false,false,false,false,false,false,false,false,false,false,false,false,false,false,false,false,false,false,false,false,false,false,1,24,,form submission,1783.9470000025144,696.1750000482425,692.087,708.753,2492.7000000025146,2493.2100000442006,2020-10-28T09:50:06.776Z,2508.681,1603879466,full,final-task---level-of-agreeance,5f99360d0bbbdd5ca04d3b63,participant,hcpibiaokgt7wq5y,,,,[object Object],103,207,,,,,217841,,,,,,,,,,,,,,,,,,,,,,,,,,,,,,,,,,,,,,,,,,,,,,,,,,,,
,Informed consent,html.Page,1,false,false,false,false,false,false,false,false,false,false,false,false,false,false,false,false,false,false,false,false,false,false,false,false,false,false,false,false,false,false,false,false,false,false,false,false,false,false,false,false,false,false,false,false,false,false,false,false,1,24,,form submission,3059.9140000188313,2493.6650000163354,2492.015,2508.681,5568.595000018831,5568.8800000352785,2020-10-28T09:50:09.851Z,5593.026,1603879466,full,final-task---level-of-agreeance,5f99360d0bbbdd5ca04d3b63,participant,hcpibiaokgt7wq5y,undefined,,,,100,100,,,,,,,,,,,,,,,,,,,,,,,,,,,,,,,,,,,,,,,,,,,,,,,,,,,,,,,,,
,Questions about participant,html.Page,2,false,false,false,false,false,false,false,false,false,false,false,false,false,false,false,false,false,false,false,false,false,false,false,false,false,false,false,false,false,false,false,false,false,false,false,false,false,false,false,false,false,false,false,false,false,false,false,false,1,24,,form submission,7684.019000053477,5569.120000000112,5576.36,5593.026,13277.045000053477,13277.490000007674,2020-10-28T09:50:17.560Z,13292.718,1603879466,full,final-task---level-of-agreeance,5f99360d0bbbdd5ca04d3b63,participant,hcpibiaokgt7wq5y,,102,201,,100,100,,,,,,,,,,,,,,,,,,,,,,,,,,,,,,,,,,,,,,,,,,,,,,,,,,,,,,,,,
,Information about the experiment,html.Page,3,false,false,false,false,false,false,false,false,false,false,false,false,false,false,false,false,false,false,false,false,false,false,false,false,false,false,false,false,false,false,false,false,false,false,false,false,false,false,false,false,false,false,false,false,false,false,false,false,1,24,,form submission,19451.302000041927,13277.830000035465,13276.052,13292.718,32744.020000041928,32744.400000025053,2020-10-28T09:50:37.028Z,32838.325,1603879466,full,final-task---level-of-agreeance,5f99360d0bbbdd5ca04d3b63,participant,hcpibiaokgt7wq5y,,,,,100,100,,,,,,,,,,,,,,,,,,,,,,,,,,,,,,,,,,,,,,,,,,,,,,,,,,,,,,,,,
,Page6_text,html.Page,4_0,false,false,false,false,false,false,false,false,false,false,true,false,false,false,false,false,false,false,false,false,false,false,false,false,false,false,false,false,false,false,false,false,false,false,false,false,false,false,false,false,false,false,false,false,false,false,false,false,2,24,,form submission,23268.400000019654,32826.545000018086,32821.659,32838.325,56106.72500001965,56107.095000043046,2020-10-28T09:51:00.391Z,56202.756,1603879466,full,final-task---level-of-agreeance,5f99360d0bbbdd5ca04d3b63,participant,hcpibiaokgt7wq5y,,,,,100,100,,6,,,,7,,,,,,,,,,,,,,,,,,,,,,,,,,,,,,,,,,,,,,,,,,,,,,,,,,,
,Page13_emoji,html.Page,4_1,false,false,false,false,false,false,false,false,false,false,true,false,false,false,false,false,false,false,false,false,false,false,false,false,false,true,false,false,false,false,false,false,false,false,false,false,false,false,false,false,false,false,false,false,false,false,false,false,3,24,,form submission,28541.539000040437,56191.435000044294,56186.09,56202.756,84744.29500004044,84744.55500004115,2020-10-28T09:51:29.029Z,84825.54,1603879466,full,final-task---level-of-agreeance,5f99360d0bbbdd5ca04d3b63,participant,hcpibiaokgt7wq5y,,,,,100,100,,7,,,,7,7,,,,,,,,,,,,,,,,,,,,,,,,,,,,,,,,,,,,,,,,,,,,,,,,,,
,Page9_text,html.Page,4_2,false,false,false,false,false,false,false,false,false,false,true,false,false,false,false,false,true,false,false,false,false,false,false,false,false,true,false,false,false,false,false,false,false,false,false,false,false,false,false,false,false,false,false,false,false,false,false,false,4,24,,form submission,9064.655000043611,84812.91000003694,84808.874,84825.54,93890.1950000436,93890.63000003807,2020-10-28T09:51:38.175Z,93976.103,1603879466,full,final-task---level-of-agreeance,5f99360d0bbbdd5ca04d3b63,participant,hcpibiaokgt7wq5y,,,,,100,100,,5,,7,,7,7,,,,,,,,,,,,,,,,,,,,,,,,,,,,,,,,,,,,,,,,,,,,,,,,,,
,Page18_emoji,html.Page,4_3,false,false,false,false,false,false,false,false,false,false,true,false,false,false,false,false,true,false,false,false,false,false,false,false,false,true,false,false,false,false,false,false,false,false,false,true,false,false,false,false,false,false,false,false,false,false,false,false,5,24,,form submission,25740.17200001341,93964.7550000227,93959.437,93976.103,119716.27500001341,119716.6150000412,2020-10-28T09:52:04.002Z,119805.134,1603879466,full,final-task---level-of-agreeance,5f99360d0bbbdd5ca04d3b63,participant,hcpibiaokgt7wq5y,,,,,100,100,,6,,7,,7,7,7,,,,,,,,,,,,,,,,,,,,,,,,,,,,,,,,,,,,,,,,,,,,,,,,,
,Page8_emoji,html.Page,4_4,false,false,false,false,false,false,false,false,false,false,true,false,false,false,false,true,true,false,false,false,false,false,false,false,false,true,false,false,false,false,false,false,false,false,false,true,false,false,false,false,false,false,false,false,false,false,false,false,6,24,,form submission,10157.866000047026,119792.6350000198,119788.468,119805.134,129963.00000004703,129963.76000001328,2020-10-28T09:52:14.249Z,130048.781,1603879466,full,final-task---level-of-agreeance,5f99360d0bbbdd5ca04d3b63,participant,hcpibiaokgt7wq5y,,,,,100,100,,6,,7,,7,7,7,7,,,,,,,,,,,,,,,,,,,,,,,,,,,,,,,,,,,,,,,,,,,,,,,,
,Page12_emoji,html.Page,4_5,false,false,false,false,false,false,false,false,false,false,true,false,false,false,false,true,true,false,false,false,false,false,false,true,false,true,false,false,false,false,false,false,false,false,false,true,false,false,false,false,false,false,false,false,false,false,false,false,7,24,,form submission,15243.524000009944,130037.05500002252,130032.115,130048.781,145292.30500000995,145292.73500002455,2020-10-28T09:52:29.579Z,145367.028,1603879466,full,final-task---level-of-agreeance,5f99360d0bbbdd5ca04d3b63,participant,hcpibiaokgt7wq5y,,,,,100,100,,5,,7,,7,7,7,7,7,,,,,,,,,,,,,,,,,,,,,,,,,,,,,,,,,,,,,,,,,,,,,,,
,Page19_text,html.Page,4_6,false,false,false,false,false,false,false,false,false,false,true,false,false,false,false,true,true,false,false,false,false,false,false,true,false,true,false,false,false,false,false,false,false,false,false,true,true,false,false,false,false,false,false,false,false,false,false,false,8,24,,form submission,67269.83200002782,145353.34000003058,145350.362,145367.028,212636.8600000278,212637.87000003504,2020-10-28T09:53:36.925Z,212730.678,1603879466,full,final-task---level-of-agreeance,5f99360d0bbbdd5ca04d3b63,participant,hcpibiaokgt7wq5y,,,,,100,100,,3,,7,,7,7,7,7,7,7,,,,,,,,,,,,,,,,,,,,,,,,,,,,,,,,,,,,,,,,,,,,,,
,Page20_text,html.Page,4_7,false,false,false,false,false,false,false,false,false,false,true,false,false,false,false,true,true,false,false,false,false,false,false,true,false,true,false,false,false,false,false,false,false,false,false,true,true,false,true,false,false,false,false,false,false,false,false,false,9,24,,form submission,9669.627000017383,212717.85500005353,212714.012,212730.678,222400.3050000174,222400.57500003604,2020-10-28T09:53:46.688Z,222530.891,1603879466,full,final-task---level-of-agreeance,5f99360d0bbbdd5ca04d3b63,participant,hcpibiaokgt7wq5y,,,,,100,100,,2,,7,,7,7,7,7,7,7,7,,,,,,,,,,,,,,,,,,,,,,,,,,,,,,,,,,,,,,,,,,,,,
,Page18_text,html.Page,4_8,false,false,false,false,false,false,false,false,false,false,true,false,false,false,false,true,true,false,false,false,false,false,false,true,false,true,false,false,false,false,false,false,false,false,false,true,true,false,true,false,false,false,false,false,false,false,false,false,9,24,,skipped,,222466.6900000302,,,222400.3050000174,222467.02000004007,2020-10-28T09:53:46.755Z,222530.891,1603879466,full,final-task---level-of-agreeance,5f99360d0bbbdd5ca04d3b63,participant,hcpibiaokgt7wq5y,,,,,100,100,,,,7,,7,7,7,7,7,7,7,7,,,,,,,,,,,,,,,,,,,,,,,,,,,,,,,,,,,,,,,,,,,,
,Page14_emoji,html.Page,4_9,false,false,false,false,false,false,false,false,false,false,true,false,false,false,false,true,true,false,false,false,false,false,false,true,false,true,false,true,false,false,false,false,false,false,false,true,true,false,true,false,false,false,false,false,false,false,false,false,10,24,,form submission,16856.37400002667,222517.15500000864,222514.225,222530.891,239387.26500002667,239387.61000003433,2020-10-28T09:54:03.676Z,239478.71,1603879466,full,final-task---level-of-agreeance,5f99360d0bbbdd5ca04d3b63,participant,hcpibiaokgt7wq5y,,,,,100,100,,1,,7,,7,7,7,7,7,7,7,7,7,,,,,,,,,,,,,,,,,,,,,,,,,,,,,,,,,,,,,,,,,,,
,Page3_emoji,html.Page,4_10,false,false,false,false,false,true,false,false,false,false,true,false,false,false,false,true,true,false,false,false,false,false,false,true,false,true,false,true,false,false,false,false,false,false,false,true,true,false,true,false,false,false,false,false,false,false,false,false,11,24,,form submission,10248.380000000325,239465.79500002554,239462.044,239478.71,249727.09000000032,249727.5550000486,2020-10-28T09:54:14.016Z,249841.47,1603879466,full,final-task---level-of-agreeance,5f99360d0bbbdd5ca04d3b63,participant,hcpibiaokgt7wq5y,,,,,100,100,,5,,7,,7,7,7,7,7,7,7,7,7,7,,,,,,,,,,,,,,,,,,,,,,,,,,,,,,,,,,,,,,,,,,
,Page15_text,html.Page,4_11,false,false,false,false,false,true,false,false,false,false,true,false,false,false,false,true,true,false,false,false,false,false,false,true,false,true,false,true,true,false,false,false,false,false,false,true,true,false,true,false,false,false,false,false,false,false,false,false,12,24,,form submission,139888.93000000037,249831.60500001395,249824.804,249841.47,389730.4000000004,389730.7200000505,2020-10-28T09:56:34.022Z,389873.58,1603879466,full,final-task---level-of-agreeance,5f99360d0bbbdd5ca04d3b63,participant,hcpibiaokgt7wq5y,,,,,100,100,,6,,7,,7,7,7,7,7,7,7,7,7,7,7,,,,,,,,,,,,,,,,,,,,,,,,,,,,,,,,,,,,,,,,,
,Page16_emoji,html.Page,4_12,false,false,false,false,false,true,false,false,false,false,true,false,false,false,false,true,true,false,false,false,false,false,false,true,false,true,false,true,true,false,false,true,false,false,false,true,true,false,true,false,false,false,false,false,false,false,false,false,13,24,,form submission,457805.86000003625,389862.770000007,389856.914,389873.58,847679.4400000363,847679.9700000556,2020-10-28T10:04:11.983Z,847852.564,1603879466,full,final-task---level-of-agreeance,5f99360d0bbbdd5ca04d3b63,participant,hcpibiaokgt7wq5y,,,,,100,100,,4,,7,,7,7,7,7,7,7,7,7,7,7,7,7,,,,,,,,,,,,,,,,,,,,,,,,,,,,,,,,,,,,,,,,
,Page1_emoji,html.Page,4_13,false,true,false,false,false,true,false,false,false,false,true,false,false,false,false,true,true,false,false,false,false,false,false,true,false,true,false,true,true,false,false,true,false,false,false,true,true,false,true,false,false,false,false,false,false,false,false,false,14,24,,form submission,6869.876000041375,847839.5450000535,847835.898,847852.564,854722.4400000414,854722.8900000337,2020-10-28T10:04:19.026Z,854866.418,1603879466,full,final-task---level-of-agreeance,5f99360d0bbbdd5ca04d3b63,participant,hcpibiaokgt7wq5y,,,,,100,100,,7,,7,,7,7,7,7,7,7,7,7,7,7,7,7,7,,,,,,,,,,,,,,,,,,,,,,,,,,,,,,,,,,,,,,,
,Page1_text,html.Page,4_14,false,true,false,false,false,true,false,false,false,false,true,false,false,false,false,true,true,false,false,false,false,false,false,true,false,true,false,true,true,false,false,true,false,false,false,true,true,false,true,false,false,false,false,false,false,false,false,false,14,24,,skipped,,854803.3600000199,,,854722.4400000414,854803.7900000345,2020-10-28T10:04:19.107Z,854866.418,1603879466,full,final-task---level-of-agreeance,5f99360d0bbbdd5ca04d3b63,participant,hcpibiaokgt7wq5y,,,,,100,100,,,,7,,7,7,7,7,7,7,7,7,7,7,7,7,7,7,,,,,,,,,,,,,,,,,,,,,,,,,,,,,,,,,,,,,,
,Page2_text,html.Page,4_15,false,true,true,false,false,true,false,false,false,false,true,false,false,false,false,true,true,false,false,false,false,false,false,true,false,true,false,true,true,false,false,true,false,false,false,true,true,false,true,false,false,false,false,false,false,false,false,false,15,24,,form submission,6994.217000048258,854853.07500005,854849.752,854866.418,861860.6350000482,861861.2550000544,2020-10-28T10:04:26.164Z,862019.908,1603879466,full,final-task---level-of-agreeance,5f99360d0bbbdd5ca04d3b63,participant,hcpibiaokgt7wq5y,,,,,100,100,,,,7,,7,7,7,7,7,7,7,7,7,7,7,7,7,7,7,5,,,,,,,,,,,,,,,,,,,,,,,,,,,,,,,,,,,,
,Page15_emoji,html.Page,4_16,false,true,true,false,false,true,false,false,false,false,true,false,false,false,false,true,true,false,false,false,false,false,false,true,false,true,false,true,true,false,false,true,false,false,false,true,true,false,true,false,false,false,false,false,false,false,false,false,15,24,,skipped,,861942.8350000526,,,861860.6350000482,861943.0750000174,2020-10-28T10:04:26.246Z,862019.908,1603879466,full,final-task---level-of-agreeance,5f99360d0bbbdd5ca04d3b63,participant,hcpibiaokgt7wq5y,,,,,100,100,,,,7,,7,7,7,7,7,7,7,7,7,7,7,7,7,7,7,,7,,,,,,,,,,,,,,,,,,,,,,,,,,,,,,,,,,,
,Page10_emoji,html.Page,4_17,false,true,true,false,false,true,false,false,false,false,true,false,false,false,false,true,true,false,false,true,false,false,false,true,false,true,false,true,true,false,false,true,false,false,false,true,true,false,true,false,false,false,false,false,false,false,false,false,16,24,,form submission,23436.43700001319,862009.1000000248,862003.242,862019.908,885456.3450000132,885456.6700000432,2020-10-28T10:04:49.760Z,885784.54,1603879466,full,final-task---level-of-agreeance,5f99360d0bbbdd5ca04d3b63,participant,hcpibiaokgt7wq5y,,,,,100,100,,6,,7,,7,7,7,7,7,7,7,7,7,7,7,7,7,7,7,,7,7,,,,,,,,,,,,,,,,,,,,,,,,,,,,,,,,,,
,Page21_emoji,html.Page,4_18,false,true,true,false,false,true,false,false,false,false,true,false,false,false,false,true,true,false,false,true,false,false,false,true,false,true,false,true,true,false,false,true,false,false,false,true,true,false,true,false,false,true,false,false,false,false,false,false,17,24,,form submission,51390.37500003958,885773.5400000238,885767.874,885784.54,937174.9150000396,937175.3400000161,2020-10-28T10:05:41.480Z,937344.011,1603879466,full,final-task---level-of-agreeance,5f99360d0bbbdd5ca04d3b63,participant,hcpibiaokgt7wq5y,,,,,100,100,,7,,7,,7,7,7,7,7,7,7,7,7,7,7,7,7,7,7,,7,7,7,,,,,,,,,,,,,,,,,,,,,,,,,,,,,,,,,
,Page14_text,html.Page,4_19,false,true,true,false,false,true,false,false,false,false,true,false,false,false,false,true,true,false,false,true,false,false,false,true,false,true,false,true,true,false,false,true,false,false,false,true,true,false,true,false,false,true,false,false,false,false,false,false,17,24,,skipped,,937265.475000022,,,937174.9150000396,937266.025000019,2020-10-28T10:05:41.571Z,937344.011,1603879466,full,final-task---level-of-agreeance,5f99360d0bbbdd5ca04d3b63,participant,hcpibiaokgt7wq5y,,,,,100,100,,,,7,,7,7,7,7,7,7,7,7,7,7,7,7,7,7,7,,7,7,7,7,,,,,,,,,,,,,,,,,,,,,,,,,,,,,,,,
,Page22_emoji,html.Page,4_20,false,true,true,false,false,true,false,false,false,false,true,false,false,false,false,true,true,false,false,true,false,false,false,true,false,true,false,true,true,false,false,true,false,false,false,true,true,false,true,false,false,true,false,true,false,false,false,false,18,24,,form submission,19922.384000042337,937332.9800000065,937327.345,937344.011,957266.3950000424,957266.7200000142,2020-10-28T10:06:01.572Z,957361.478,1603879466,full,final-task---level-of-agreeance,5f99360d0bbbdd5ca04d3b63,participant,hcpibiaokgt7wq5y,,,,,100,100,,6,,7,,7,7,7,7,7,7,7,7,7,7,7,7,7,7,7,,7,7,7,7,7,,,,,,,,,,,,,,,,,,,,,,,,,,,,,,,
,Page11_text,html.Page,4_21,false,true,true,false,false,true,false,false,false,false,true,false,false,false,false,true,true,false,false,true,true,false,false,true,false,true,false,true,true,false,false,true,false,false,false,true,true,false,true,false,false,true,false,true,false,false,false,false,19,24,,form submission,44944.28700005554,957349.2300000507,957344.812,957361.478,1002305.7650000555,1002306.1300000409,2020-10-28T10:06:46.613Z,1002474.533,1603879466,full,final-task---level-of-agreeance,5f99360d0bbbdd5ca04d3b63,participant,hcpibiaokgt7wq5y,,,,,100,100,,5,,7,,7,7,7,7,7,7,7,7,7,7,7,7,7,7,7,,7,7,7,7,7,7,,,,,,,,,,,,,,,,,,,,,,,,,,,,,,
,Page19_emoji,html.Page,4_22,false,true,true,false,false,true,false,false,false,false,true,false,false,false,false,true,true,false,false,true,true,false,false,true,false,true,false,true,true,false,false,true,false,false,false,true,true,false,true,false,false,true,false,true,false,false,false,false,19,24,,skipped,,1002393.9050000045,,,1002305.7650000555,1002394.335000019,2020-10-28T10:06:46.701Z,1002474.533,1603879466,full,final-task---level-of-agreeance,5f99360d0bbbdd5ca04d3b63,participant,hcpibiaokgt7wq5y,,,,,100,100,,,,7,,7,7,7,7,7,7,7,7,7,7,7,7,7,7,7,,7,7,7,7,7,7,7,,,,,,,,,,,,,,,,,,,,,,,,,,,,,
,Page17_emoji,html.Page,4_23,false,true,true,false,false,true,false,false,false,false,true,false,false,false,false,true,true,false,false,true,true,false,false,true,false,true,false,true,true,false,false,true,false,true,false,true,true,false,true,false,false,true,false,true,false,false,false,false,20,24,,form submission,8424.69200000097,1002462.7300000284,1002457.867,1002474.533,1010899.225000001,1010899.5950000244,2020-10-28T10:06:55.206Z,1011115.178,1603879466,full,final-task---level-of-agreeance,5f99360d0bbbdd5ca04d3b63,participant,hcpibiaokgt7wq5y,,,,,100,100,,6,7,7,,7,7,7,7,7,7,7,7,7,7,7,7,7,7,7,,7,7,7,7,7,7,7,,,,,,,,,,,,,,,,,,,,,,,,,,,,,
,Page9_emoji,html.Page,4_24,false,true,true,false,false,true,false,false,false,false,true,false,false,false,false,true,true,false,false,true,true,false,false,true,false,true,false,true,true,false,false,true,false,true,false,true,true,false,true,false,false,true,false,true,false,false,false,false,20,24,,skipped,,1010969.3400000106,,,1010899.225000001,1010969.7700000252,2020-10-28T10:06:55.277Z,1011115.178,1603879466,full,final-task---level-of-agreeance,5f99360d0bbbdd5ca04d3b63,participant,hcpibiaokgt7wq5y,,,,,100,100,,,7,7,,7,7,7,7,7,7,7,7,7,7,7,7,7,7,7,,7,7,7,7,7,7,7,7,,,,,,,,,,,,,,,,,,,,,,,,,,,,
,Page22_text,html.Page,4_25,false,true,true,false,false,true,false,false,false,false,true,false,false,false,false,true,true,false,false,true,true,false,false,true,false,true,false,true,true,false,false,true,false,true,false,true,true,false,true,false,false,true,false,true,false,false,false,false,20,24,,skipped,,1011037.9150000517,,,1010899.225000001,1011038.3350000484,2020-10-28T10:06:55.345Z,1011115.178,1603879466,full,final-task---level-of-agreeance,5f99360d0bbbdd5ca04d3b63,participant,hcpibiaokgt7wq5y,,,,,100,100,,,7,7,,7,7,7,7,7,7,7,7,7,7,7,7,7,7,7,,7,7,7,7,7,7,7,7,7,,,,,,,,,,,,,,,,,,,,,,,,,,,
,Page7_text,html.Page,4_26,false,true,true,false,false,true,false,false,false,false,true,false,true,false,false,true,true,false,false,true,true,false,false,true,false,true,false,true,true,false,false,true,false,true,false,true,true,false,true,false,false,true,false,true,false,false,false,false,21,24,,form submission,14416.86699999997,1011102.3000000278,1011098.512,1011115.178,1025532.0449999999,1025532.4850000325,2020-10-28T10:07:09.840Z,1025618.95,1603879466,full,final-task---level-of-agreeance,5f99360d0bbbdd5ca04d3b63,participant,hcpibiaokgt7wq5y,,,,,100,100,,4,7,7,,7,7,7,7,7,7,7,7,7,7,7,7,7,7,7,,7,7,7,7,7,7,7,7,7,7,,,,,,,,,,,,,,,,,,,,,,,,,,
,Page4_emoji,html.Page,4_27,false,true,true,false,false,true,false,true,false,false,true,false,true,false,false,true,true,false,false,true,true,false,false,true,false,true,false,true,true,false,false,true,false,true,false,true,true,false,true,false,false,true,false,true,false,false,false,false,22,24,,form submission,12453.65000001411,1025606.1350000091,1025602.284,1025618.95,1038072.6000000141,1038073.1350000133,2020-10-28T10:07:22.381Z,1038160.172,1603879466,full,final-task---level-of-agreeance,5f99360d0bbbdd5ca04d3b63,participant,hcpibiaokgt7wq5y,,,,,100,100,,2,7,7,,7,7,7,7,7,7,7,7,7,7,7,7,7,7,7,,7,7,7,7,7,7,7,7,7,7,7,,,,,,,,,,,,,,,,,,,,,,,,,
,Page5_text,html.Page,4_28,false,true,true,false,false,true,false,true,true,false,true,false,true,false,false,true,true,false,false,true,true,false,false,true,false,true,false,true,true,false,false,true,false,true,false,true,true,false,true,false,false,true,false,true,false,false,false,false,23,24,,form submission,6740.238000001991,1038147.7700000396,1038143.506,1038160.172,1044900.410000002,1044900.7500000298,2020-10-28T10:07:29.208Z,1045059.896,1603879466,full,final-task---level-of-agreeance,5f99360d0bbbdd5ca04d3b63,participant,hcpibiaokgt7wq5y,,,,,100,100,,5,7,7,,7,7,7,7,7,7,7,7,7,7,7,7,7,7,7,,7,7,7,7,7,7,7,7,7,7,7,7,,,,,,,,,,,,,,,,,,,,,,,,
,Page12_text,html.Page,4_29,false,true,true,false,false,true,false,true,true,false,true,false,true,false,false,true,true,false,false,true,true,false,false,true,false,true,false,true,true,false,false,true,false,true,false,true,true,false,true,false,false,true,false,true,false,false,false,false,23,24,,skipped,,1044982.2000000277,,,1044900.410000002,1044982.6500000199,2020-10-28T10:07:29.290Z,1045059.896,1603879466,full,final-task---level-of-agreeance,5f99360d0bbbdd5ca04d3b63,participant,hcpibiaokgt7wq5y,,,,,100,100,,,7,7,,7,7,7,7,7,7,7,7,7,7,7,7,7,7,7,,7,7,7,7,7,7,7,7,7,7,7,7,7,,,,,,,,,,,,,,,,,,,,,,,
,Page24_text,html.Page,4_30,false,true,true,false,false,true,false,true,true,false,true,false,true,false,false,true,true,false,false,true,true,false,false,true,false,true,false,true,true,false,false,true,false,true,false,true,true,false,true,false,false,true,false,true,false,false,true,false,24,24,,form submission,17880.189000009326,1045048.6800000072,1045043.23,1045059.896,1062940.0850000093,1062940.5150000239,2020-10-28T10:07:47.249Z,1063234.098,1603879466,full,final-task---level-of-agreeance,5f99360d0bbbdd5ca04d3b63,participant,hcpibiaokgt7wq5y,,,,,100,100,,2,7,7,,7,7,7,7,7,7,7,7,7,7,7,7,7,7,7,,7,7,7,7,7,7,7,7,7,7,7,7,7,7,,,,,,,,,,,,,,,,,,,,,,
,Page20_emoji,html.Page,4_31,false,true,true,false,false,true,false,true,true,false,true,false,true,false,false,true,true,false,false,true,true,false,false,true,false,true,false,true,true,false,false,true,false,true,false,true,true,false,true,false,false,true,false,true,false,false,true,false,24,24,,skipped,,1063021.8250000034,,,1062940.0850000093,1063022.2900000517,2020-10-28T10:07:47.330Z,1063234.098,1603879466,full,final-task---level-of-agreeance,5f99360d0bbbdd5ca04d3b63,participant,hcpibiaokgt7wq5y,,,,,100,100,,,7,7,,7,7,7,7,7,7,7,7,7,7,7,7,7,7,7,,7,7,7,7,7,7,7,7,7,7,7,7,7,7,7,,,,,,,,,,,,,,,,,,,,,
,Page8_text,html.Page,4_32,false,true,true,false,false,true,false,true,true,false,true,false,true,false,false,true,true,false,false,true,true,false,false,true,false,true,false,true,true,false,false,true,false,true,false,true,true,false,true,false,false,true,false,true,false,false,true,false,24,24,,skipped,,1063088.480000035,,,1062940.0850000093,1063088.9150000294,2020-10-28T10:07:47.397Z,1063234.098,1603879466,full,final-task---level-of-agreeance,5f99360d0bbbdd5ca04d3b63,participant,hcpibiaokgt7wq5y,,,,,100,100,,,7,7,,7,7,7,7,7,7,7,7,7,7,7,7,7,7,7,,7,7,7,7,7,7,7,7,7,7,7,7,7,7,7,7,,,,,,,,,,,,,,,,,,,,
,Page16_text,html.Page,4_33,false,true,true,false,false,true,false,true,true,false,true,false,true,false,false,true,true,false,false,true,true,false,false,true,false,true,false,true,true,false,false,true,false,true,false,true,true,false,true,false,false,true,false,true,false,false,true,false,24,24,,skipped,,1063156.7150000483,,,1062940.0850000093,1063157.189999998,2020-10-28T10:07:47.465Z,1063234.098,1603879466,full,final-task---level-of-agreeance,5f99360d0bbbdd5ca04d3b63,participant,hcpibiaokgt7wq5y,,,,,100,100,,,7,7,,7,7,7,7,7,7,7,7,7,7,7,7,7,7,7,,7,7,7,7,7,7,7,7,7,7,7,7,7,7,7,7,7,,,,,,,,,,,,,,,,,,,
,Page23_text,html.Page,4_34,false,true,true,false,false,true,false,true,true,false,true,false,true,false,false,true,true,false,false,true,true,false,false,true,false,true,false,true,true,false,false,true,false,true,false,true,true,false,true,false,false,true,false,true,true,false,true,false,25,24,,form submission,14093.137000033399,1063221.985000011,1063217.432,1063234.098,1077327.2350000334,1077327.740000037,2020-10-28T10:08:01.636Z,1078208.738,1603879466,full,final-task---level-of-agreeance,5f99360d0bbbdd5ca04d3b63,participant,hcpibiaokgt7wq5y,,,,,100,100,,6,7,7,,7,7,7,7,7,7,7,7,7,7,7,7,7,7,7,,7,7,7,7,7,7,7,7,7,7,7,7,7,7,7,7,7,7,,,,,,,,,,,,,,,,,,
,Page17_text,html.Page,4_35,false,true,true,false,false,true,false,true,true,false,true,false,true,false,false,true,true,false,false,true,true,false,false,true,false,true,false,true,true,false,false,true,false,true,false,true,true,false,true,false,false,true,false,true,true,false,true,false,25,24,,skipped,,1077413.8000000385,,,1077327.2350000334,1077414.2750000465,2020-10-28T10:08:01.723Z,1078208.738,1603879466,full,final-task---level-of-agreeance,5f99360d0bbbdd5ca04d3b63,participant,hcpibiaokgt7wq5y,,,,,100,100,,,7,7,,7,7,7,7,7,7,7,7,7,7,7,7,7,7,7,,7,7,7,7,7,7,7,7,7,7,7,7,7,7,7,7,7,7,7,,,,,,,,,,,,,,,,,
,Page11_emoji,html.Page,4_36,false,true,true,false,false,true,false,true,true,false,true,false,true,false,false,true,true,false,false,true,true,false,false,true,false,true,false,true,true,false,false,true,false,true,false,true,true,false,true,false,false,true,false,true,true,false,true,false,25,24,,skipped,,1077480.3150000516,,,1077327.2350000334,1077480.7700000238,2020-10-28T10:08:01.789Z,1078208.738,1603879466,full,final-task---level-of-agreeance,5f99360d0bbbdd5ca04d3b63,participant,hcpibiaokgt7wq5y,,,,,100,100,,,7,7,,7,7,7,7,7,7,7,7,7,7,7,7,7,7,7,,7,7,7,7,7,7,7,7,7,7,7,7,7,7,7,7,7,7,7,7,,,,,,,,,,,,,,,,
,Page24_emoji,html.Page,4_37,false,true,true,false,false,true,false,true,true,false,true,false,true,false,false,true,true,false,false,true,true,false,false,true,false,true,false,true,true,false,false,true,false,true,false,true,true,false,true,false,false,true,false,true,true,false,true,false,25,24,,skipped,,1077548.0150000076,,,1077327.2350000334,1077548.46000002,2020-10-28T10:08:01.857Z,1078208.738,1603879466,full,final-task---level-of-agreeance,5f99360d0bbbdd5ca04d3b63,participant,hcpibiaokgt7wq5y,,,,,100,100,,,7,7,,7,7,7,7,7,7,7,7,7,7,7,7,7,7,7,,7,7,7,7,7,7,7,7,7,7,7,7,7,7,7,7,7,7,7,7,7,,,,,,,,,,,,,,,
,Page7_emoji,html.Page,4_38,false,true,true,false,false,true,false,true,true,false,true,false,true,false,false,true,true,false,false,true,true,false,false,true,false,true,false,true,true,false,false,true,false,true,false,true,true,false,true,false,false,true,false,true,true,false,true,false,25,24,,skipped,,1077613.1900000037,,,1077327.2350000334,1077613.6400000541,2020-10-28T10:08:01.922Z,1078208.738,1603879466,full,final-task---level-of-agreeance,5f99360d0bbbdd5ca04d3b63,participant,hcpibiaokgt7wq5y,,,,,100,100,,,7,7,,7,7,7,7,7,7,7,7,7,7,7,7,7,7,7,,7,7,7,7,7,7,7,7,7,7,7,7,7,7,7,7,7,7,7,7,7,7,,,,,,,,,,,,,,
,Page4_text,html.Page,4_39,false,true,true,false,false,true,false,true,true,false,true,false,true,false,false,true,true,false,false,true,true,false,false,true,false,true,false,true,true,false,false,true,false,true,false,true,true,false,true,false,false,true,false,true,true,false,true,false,25,24,,skipped,,1077663.675000018,,,1077327.2350000334,1077664.1300000483,2020-10-28T10:08:01.973Z,1078208.738,1603879466,full,final-task---level-of-agreeance,5f99360d0bbbdd5ca04d3b63,participant,hcpibiaokgt7wq5y,,,,,100,100,7,,7,7,,7,7,7,7,7,7,7,7,7,7,7,7,7,7,7,,7,7,7,7,7,7,7,7,7,7,7,7,7,7,7,7,7,7,7,7,7,7,,,,,,,,,,,,,,
,Page21_text,html.Page,4_40,false,true,true,false,false,true,false,true,true,false,true,false,true,false,false,true,true,false,false,true,true,false,false,true,false,true,false,true,true,false,false,true,false,true,false,true,true,false,true,false,false,true,false,true,true,false,true,false,25,24,,skipped,,1077731.3950000098,,,1077327.2350000334,1077731.85500002,2020-10-28T10:08:02.040Z,1078208.738,1603879466,full,final-task---level-of-agreeance,5f99360d0bbbdd5ca04d3b63,participant,hcpibiaokgt7wq5y,,,,,100,100,7,,7,7,,7,7,7,7,7,7,7,7,7,7,7,7,7,7,7,,7,7,7,7,7,7,7,7,7,7,7,7,7,7,7,7,7,7,7,7,7,7,7,,,,,,,,,,,,,
,Page23_emoji,html.Page,4_41,false,true,true,false,false,true,false,true,true,false,true,false,true,false,false,true,true,false,false,true,true,false,false,true,false,true,false,true,true,false,false,true,false,true,false,true,true,false,true,false,false,true,false,true,true,false,true,false,25,24,,skipped,,1077796.1500000092,,,1077327.2350000334,1077796.6050000396,2020-10-28T10:08:02.105Z,1078208.738,1603879466,full,final-task---level-of-agreeance,5f99360d0bbbdd5ca04d3b63,participant,hcpibiaokgt7wq5y,,,,,100,100,7,,7,7,,7,7,7,7,7,7,7,7,7,7,7,7,7,7,7,,7,7,7,7,7,7,7,7,7,7,7,7,7,7,7,7,7,7,7,7,7,7,7,7,,,,,,,,,,,,
,Page6_emoji,html.Page,4_42,false,true,true,false,false,true,false,true,true,false,true,false,true,false,false,true,true,false,false,true,true,false,false,true,false,true,false,true,true,false,false,true,false,true,false,true,true,false,true,false,false,true,false,true,true,false,true,false,25,24,,skipped,,1077862.6800000202,,,1077327.2350000334,1077863.1350000505,2020-10-28T10:08:02.172Z,1078208.738,1603879466,full,final-task---level-of-agreeance,5f99360d0bbbdd5ca04d3b63,participant,hcpibiaokgt7wq5y,,,,,100,100,7,,7,7,,7,7,7,7,7,7,7,7,7,7,7,7,7,7,7,,7,7,7,7,7,7,7,7,7,7,7,7,7,7,7,7,7,7,7,7,7,7,7,7,7,,,,,,,,,,,
,Page2_emoji,html.Page,4_43,false,true,true,false,false,true,false,true,true,false,true,false,true,false,false,true,true,false,false,true,true,false,false,true,false,true,false,true,true,false,false,true,false,true,false,true,true,false,true,false,false,true,false,true,true,false,true,false,25,24,,skipped,,1077928.895000019,,,1077327.2350000334,1077929.3550000293,2020-10-28T10:08:02.238Z,1078208.738,1603879466,full,final-task---level-of-agreeance,5f99360d0bbbdd5ca04d3b63,participant,hcpibiaokgt7wq5y,,,,,100,100,7,,7,7,,7,7,7,7,7,7,7,7,7,7,7,7,7,7,7,,7,7,7,7,7,7,7,7,7,7,7,7,7,7,7,7,7,7,7,7,7,7,7,7,7,7,,,,,,,,,,
,Page5_emoji,html.Page,4_44,false,true,true,false,false,true,false,true,true,false,true,false,true,false,false,true,true,false,false,true,true,false,false,true,false,true,false,true,true,false,false,true,false,true,false,true,true,false,true,false,false,true,false,true,true,false,true,false,25,24,,skipped,,1077996.7500000494,,,1077327.2350000334,1077997.2100000014,2020-10-28T10:08:02.306Z,1078208.738,1603879466,full,final-task---level-of-agreeance,5f99360d0bbbdd5ca04d3b63,participant,hcpibiaokgt7wq5y,,,,,100,100,7,,7,7,,7,7,7,7,7,7,7,7,7,7,7,7,7,7,7,,7,7,7,7,7,7,7,7,7,7,7,7,7,7,7,7,7,7,7,7,7,7,7,7,7,7,7,,,,,,,,,
,Page3_text,html.Page,4_45,false,true,true,false,false,true,false,true,true,false,true,false,true,false,false,true,true,false,false,true,true,false,false,true,false,true,false,true,true,false,false,true,false,true,false,true,true,false,true,false,false,true,false,true,true,false,true,false,25,24,,skipped,,1078063.5600000387,,,1077327.2350000334,1078064.0250000288,2020-10-28T10:08:02.372Z,1078208.738,1603879466,full,final-task---level-of-agreeance,5f99360d0bbbdd5ca04d3b63,participant,hcpibiaokgt7wq5y,,,,,100,100,7,,7,7,,7,7,7,7,7,7,7,7,7,7,7,7,7,7,7,,7,7,7,7,7,7,7,7,7,7,7,7,7,7,7,7,7,7,7,7,7,7,7,7,7,7,7,7,,,,,,,,
,Page10_text,html.Page,4_46,false,true,true,false,false,true,false,true,true,false,true,false,true,false,false,true,true,false,false,true,true,false,false,true,false,true,false,true,true,false,false,true,false,true,false,true,true,false,true,false,false,true,false,true,true,false,true,false,25,24,,skipped,,1078130.7850000449,,,1077327.2350000334,1078131.250000035,2020-10-28T10:08:02.440Z,1078208.738,1603879466,full,final-task---level-of-agreeance,5f99360d0bbbdd5ca04d3b63,participant,hcpibiaokgt7wq5y,,,,,100,100,7,,7,7,,7,7,7,7,7,7,7,7,7,7,7,7,7,7,7,,7,7,7,7,7,7,7,7,7,7,7,7,7,7,7,7,7,7,7,7,7,7,7,7,7,7,7,7,7,,,,,,,
,Page13_text,html.Page,4_47,false,true,true,false,false,true,false,true,true,false,true,false,true,false,false,true,true,false,false,true,true,false,false,true,false,true,false,true,true,false,false,true,false,true,false,true,true,false,true,false,false,true,false,true,true,false,true,false,25,24,,skipped,,1078197.2600000445,,,1077327.2350000334,1078197.9050000082,2020-10-28T10:08:02.506Z,1078208.738,1603879466,full,final-task---level-of-agreeance,5f99360d0bbbdd5ca04d3b63,participant,hcpibiaokgt7wq5y,,,,,100,100,7,,7,7,,7,7,7,7,7,7,7,7,7,7,7,7,7,7,7,,7,7,7,7,7,7,7,7,7,7,7,7,7,7,7,7,7,7,7,7,7,7,7,7,7,7,7,7,7,7,,,,,,
,Sequence,flow.Sequence,4,false,true,true,false,false,true,false,true,true,false,true,false,true,false,false,true,true,false,false,true,true,false,false,true,false,true,false,true,true,false,false,true,false,true,false,true,true,false,true,false,false,true,false,true,true,false,true,false,25,24,,completion,1044488.9100000334,32745.165000029374,32821.659,32838.325,1077327.2350000334,1078201.8600000301,2020-10-28T10:08:02.510Z,1078208.738,1603879466,full,final-task---level-of-agreeance,5f99360d0bbbdd5ca04d3b63,participant,hcpibiaokgt7wq5y,,,,,100,100,7,,7,7,,7,7,7,7,7,7,7,7,7,7,7,7,7,7,7,,7,7,7,7,7,7,7,7,7,7,7,7,7,7,7,7,7,7,7,7,7,7,7,7,7,7,7,7,7,7,,,,,,
,Page,html.Page,5,false,true,true,false,false,true,false,true,true,false,true,false,true,false,false,true,true,false,false,true,true,false,false,true,false,true,false,true,true,false,false,true,false,true,false,true,true,false,true,false,false,true,false,true,true,false,true,false,25,24,,form submission,10306.577000026125,1078204.1150000296,1078192.072,1078208.738,1088515.315000026,1088515.8800000208,2020-10-28T10:08:12.825Z,1088536.915,1603879466,full,final-task---level-of-agreeance,5f99360d0bbbdd5ca04d3b63,participant,hcpibiaokgt7wq5y,,,,,100,100,7,,7,7,,7,7,7,7,7,7,7,7,7,7,7,7,7,7,7,,7,7,7,7,7,7,7,7,7,7,7,7,7,7,7,7,7,7,7,7,7,7,7,7,7,7,7,7,7,7,24,168,24,168,7,7
,root,flow.Sequence,,false,true,true,false,false,true,false,true,true,false,true,false,true,false,false,true,true,false,false,true,true,false,false,true,false,true,false,true,true,false,false,true,false,true,false,true,true,false,true,false,false,true,false,true,true,false,true,false,25,24,,completion,1087806.562000026,695.5350000062026,692.087,708.753,1088515.315000026,1088518.3800000232,2020-10-28T10:08:12.827Z,1088536.915,1603879466,full,final-task---level-of-agreeance,5f99360d0bbbdd5ca04d3b63,participant,hcpibiaokgt7wq5y,,,,,100,100,7,,7,7,,7,7,7,7,7,7,7,7,7,7,7,7,7,7,7,,7,7,7,7,7,7,7,7,7,7,7,7,7,7,7,7,7,7,7,7,7,7,7,7,7,7,7,7,7,7,24,168,24,168,7,7
"{""labjs_version"":""20.1.1"",""labjs_build"":{""flavor"":""production"",""commit"":""c48ac4ada3769e8d34489594ab03097d5f256ac7""},""location"":""https://open-lab.online/test/final-task---level-of-agreeance/5f993ecc0bbbdd5ca04d3bde?fbclid=IwAR1dvx42-WM83xvS0RuVgqAqy942dF76jhzdyJzkGSsoFJyamOLftcc_1kE"",""userAgent"":""Mozilla/5.0 (Macintosh; Intel Mac OS X 10_15_6) AppleWebKit/537.36 (KHTML, like Gecko) Chrome/86.0.4240.111 Safari/537.36"",""platform"":""MacIntel"",""language"":""da-DK"",""locale"":""da"",""timeZone"":""Europe/Copenhagen"",""timezoneOffset"":-60,""screen_width"":1440,""screen_height"":900,""scroll_width"":1393,""scroll_height"":741,""window_innerWidth"":1393,""window_innerHeight"":765,""devicePixelRatio"":2}",Information letter,html.Page,0,false,false,false,false,false,false,false,false,false,false,false,false,false,false,false,false,false,false,false,false,false,false,false,false,false,false,false,false,false,false,false,false,false,false,false,false,false,false,false,false,false,false,false,false,false,false,false,false,1,24,,form submission,1783.9470000025144,696.1750000482425,692.087,708.753,2492.7000000025146,2493.2100000442006,2020-10-28T09:50:06.776Z,2508.681,1603879466,incremental,final-task---level-of-agreeance,5f99360d0bbbdd5ca04d3b63,participant,hcpibiaokgt7wq5y,,,,[object Object],103,207,,,,,217841,,,,,,,,,,,,,,,,,,,,,,,,,,,,,,,,,,,,,,,,,,,,,,,,,,,,
,Informed consent,html.Page,1,false,false,false,false,false,false,false,false,false,false,false,false,false,false,false,false,false,false,false,false,false,false,false,false,false,false,false,false,false,false,false,false,false,false,false,false,false,false,false,false,false,false,false,false,false,false,false,false,1,24,,form submission,3059.9140000188313,2493.6650000163354,2492.015,2508.681,5568.595000018831,5568.8800000352785,2020-10-28T09:50:09.851Z,5593.026,1603879466,incremental,final-task---level-of-agreeance,5f99360d0bbbdd5ca04d3b63,participant,hcpibiaokgt7wq5y,undefined,,,,100,100,,,,,,,,,,,,,,,,,,,,,,,,,,,,,,,,,,,,,,,,,,,,,,,,,,,,,,,,,
,Questions about participant,html.Page,2,false,false,false,false,false,false,false,false,false,false,false,false,false,false,false,false,false,false,false,false,false,false,false,false,false,false,false,false,false,false,false,false,false,false,false,false,false,false,false,false,false,false,false,false,false,false,false,false,1,24,,form submission,7684.019000053477,5569.120000000112,5576.36,5593.026,13277.045000053477,13277.490000007674,2020-10-28T09:50:17.560Z,13292.718,1603879466,incremental,final-task---level-of-agreeance,5f99360d0bbbdd5ca04d3b63,participant,hcpibiaokgt7wq5y,,102,201,,100,100,,,,,,,,,,,,,,,,,,,,,,,,,,,,,,,,,,,,,,,,,,,,,,,,,,,,,,,,,
,Information about the experiment,html.Page,3,false,false,false,false,false,false,false,false,false,false,false,false,false,false,false,false,false,false,false,false,false,false,false,false,false,false,false,false,false,false,false,false,false,false,false,false,false,false,false,false,false,false,false,false,false,false,false,false,1,24,,form submission,19451.302000041927,13277.830000035465,13276.052,13292.718,32744.020000041928,32744.400000025053,2020-10-28T09:50:37.028Z,32838.325,1603879466,incremental,final-task---level-of-agreeance,5f99360d0bbbdd5ca04d3b63,participant,hcpibiaokgt7wq5y,,,,,100,100,,,,,,,,,,,,,,,,,,,,,,,,,,,,,,,,,,,,,,,,,,,,,,,,,,,,,,,,,
,Page6_text,html.Page,4_0,false,false,false,false,false,false,false,false,false,false,true,false,false,false,false,false,false,false,false,false,false,false,false,false,false,false,false,false,false,false,false,false,false,false,false,false,false,false,false,false,false,false,false,false,false,false,false,false,2,24,,form submission,23268.400000019654,32826.545000018086,32821.659,32838.325,56106.72500001965,56107.095000043046,2020-10-28T09:51:00.391Z,56202.756,1603879466,incremental,final-task---level-of-agreeance,5f99360d0bbbdd5ca04d3b63,participant,hcpibiaokgt7wq5y,,,,,100,100,,6,,,,7,,,,,,,,,,,,,,,,,,,,,,,,,,,,,,,,,,,,,,,,,,,,,,,,,,,
,Page13_emoji,html.Page,4_1,false,false,false,false,false,false,false,false,false,false,true,false,false,false,false,false,false,false,false,false,false,false,false,false,false,true,false,false,false,false,false,false,false,false,false,false,false,false,false,false,false,false,false,false,false,false,false,false,3,24,,form submission,28541.539000040437,56191.435000044294,56186.09,56202.756,84744.29500004044,84744.55500004115,2020-10-28T09:51:29.029Z,84825.54,1603879466,incremental,final-task---level-of-agreeance,5f99360d0bbbdd5ca04d3b63,participant,hcpibiaokgt7wq5y,,,,,100,100,,7,,,,7,7,,,,,,,,,,,,,,,,,,,,,,,,,,,,,,,,,,,,,,,,,,,,,,,,,,
,Page9_text,html.Page,4_2,false,false,false,false,false,false,false,false,false,false,true,false,false,false,false,false,true,false,false,false,false,false,false,false,false,true,false,false,false,false,false,false,false,false,false,false,false,false,false,false,false,false,false,false,false,false,false,false,4,24,,form submission,9064.655000043611,84812.91000003694,84808.874,84825.54,93890.1950000436,93890.63000003807,2020-10-28T09:51:38.175Z,93976.103,1603879466,incremental,final-task---level-of-agreeance,5f99360d0bbbdd5ca04d3b63,participant,hcpibiaokgt7wq5y,,,,,100,100,,5,,7,,7,7,,,,,,,,,,,,,,,,,,,,,,,,,,,,,,,,,,,,,,,,,,,,,,,,,,
,Page18_emoji,html.Page,4_3,false,false,false,false,false,false,false,false,false,false,true,false,false,false,false,false,true,false,false,false,false,false,false,false,false,true,false,false,false,false,false,false,false,false,false,true,false,false,false,false,false,false,false,false,false,false,false,false,5,24,,form submission,25740.17200001341,93964.7550000227,93959.437,93976.103,119716.27500001341,119716.6150000412,2020-10-28T09:52:04.002Z,119805.134,1603879466,incremental,final-task---level-of-agreeance,5f99360d0bbbdd5ca04d3b63,participant,hcpibiaokgt7wq5y,,,,,100,100,,6,,7,,7,7,7,,,,,,,,,,,,,,,,,,,,,,,,,,,,,,,,,,,,,,,,,,,,,,,,,
,Page8_emoji,html.Page,4_4,false,false,false,false,false,false,false,false,false,false,true,false,false,false,false,true,true,false,false,false,false,false,false,false,false,true,false,false,false,false,false,false,false,false,false,true,false,false,false,false,false,false,false,false,false,false,false,false,6,24,,form submission,10157.866000047026,119792.6350000198,119788.468,119805.134,129963.00000004703,129963.76000001328,2020-10-28T09:52:14.249Z,130048.781,1603879466,incremental,final-task---level-of-agreeance,5f99360d0bbbdd5ca04d3b63,participant,hcpibiaokgt7wq5y,,,,,100,100,,6,,7,,7,7,7,7,,,,,,,,,,,,,,,,,,,,,,,,,,,,,,,,,,,,,,,,,,,,,,,,
,Page12_emoji,html.Page,4_5,false,false,false,false,false,false,false,false,false,false,true,false,false,false,false,true,true,false,false,false,false,false,false,true,false,true,false,false,false,false,false,false,false,false,false,true,false,false,false,false,false,false,false,false,false,false,false,false,7,24,,form submission,15243.524000009944,130037.05500002252,130032.115,130048.781,145292.30500000995,145292.73500002455,2020-10-28T09:52:29.579Z,145367.028,1603879466,incremental,final-task---level-of-agreeance,5f99360d0bbbdd5ca04d3b63,participant,hcpibiaokgt7wq5y,,,,,100,100,,5,,7,,7,7,7,7,7,,,,,,,,,,,,,,,,,,,,,,,,,,,,,,,,,,,,,,,,,,,,,,,
,Page19_text,html.Page,4_6,false,false,false,false,false,false,false,false,false,false,true,false,false,false,false,true,true,false,false,false,false,false,false,true,false,true,false,false,false,false,false,false,false,false,false,true,true,false,false,false,false,false,false,false,false,false,false,false,8,24,,form submission,67269.83200002782,145353.34000003058,145350.362,145367.028,212636.8600000278,212637.87000003504,2020-10-28T09:53:36.925Z,212730.678,1603879466,incremental,final-task---level-of-agreeance,5f99360d0bbbdd5ca04d3b63,participant,hcpibiaokgt7wq5y,,,,,100,100,,3,,7,,7,7,7,7,7,7,,,,,,,,,,,,,,,,,,,,,,,,,,,,,,,,,,,,,,,,,,,,,,
,Page20_text,html.Page,4_7,false,false,false,false,false,false,false,false,false,false,true,false,false,false,false,true,true,false,false,false,false,false,false,true,false,true,false,false,false,false,false,false,false,false,false,true,true,false,true,false,false,false,false,false,false,false,false,false,9,24,,form submission,9669.627000017383,212717.85500005353,212714.012,212730.678,222400.3050000174,222400.57500003604,2020-10-28T09:53:46.688Z,222530.891,1603879466,incremental,final-task---level-of-agreeance,5f99360d0bbbdd5ca04d3b63,participant,hcpibiaokgt7wq5y,,,,,100,100,,2,,7,,7,7,7,7,7,7,7,,,,,,,,,,,,,,,,,,,,,,,,,,,,,,,,,,,,,,,,,,,,,
,Page18_text,html.Page,4_8,false,false,false,false,false,false,false,false,false,false,true,false,false,false,false,true,true,false,false,false,false,false,false,true,false,true,false,false,false,false,false,false,false,false,false,true,true,false,true,false,false,false,false,false,false,false,false,false,9,24,,skipped,,222466.6900000302,,,222400.3050000174,222467.02000004007,2020-10-28T09:53:46.755Z,222530.891,1603879466,incremental,final-task---level-of-agreeance,5f99360d0bbbdd5ca04d3b63,participant,hcpibiaokgt7wq5y,,,,,100,100,,,,7,,7,7,7,7,7,7,7,7,,,,,,,,,,,,,,,,,,,,,,,,,,,,,,,,,,,,,,,,,,,,
,Page14_emoji,html.Page,4_9,false,false,false,false,false,false,false,false,false,false,true,false,false,false,false,true,true,false,false,false,false,false,false,true,false,true,false,true,false,false,false,false,false,false,false,true,true,false,true,false,false,false,false,false,false,false,false,false,10,24,,form submission,16856.37400002667,222517.15500000864,222514.225,222530.891,239387.26500002667,239387.61000003433,2020-10-28T09:54:03.676Z,239478.71,1603879466,incremental,final-task---level-of-agreeance,5f99360d0bbbdd5ca04d3b63,participant,hcpibiaokgt7wq5y,,,,,100,100,,1,,7,,7,7,7,7,7,7,7,7,7,,,,,,,,,,,,,,,,,,,,,,,,,,,,,,,,,,,,,,,,,,,
,Page3_emoji,html.Page,4_10,false,false,false,false,false,true,false,false,false,false,true,false,false,false,false,true,true,false,false,false,false,false,false,true,false,true,false,true,false,false,false,false,false,false,false,true,true,false,true,false,false,false,false,false,false,false,false,false,11,24,,form submission,10248.380000000325,239465.79500002554,239462.044,239478.71,249727.09000000032,249727.5550000486,2020-10-28T09:54:14.016Z,249841.47,1603879466,incremental,final-task---level-of-agreeance,5f99360d0bbbdd5ca04d3b63,participant,hcpibiaokgt7wq5y,,,,,100,100,,5,,7,,7,7,7,7,7,7,7,7,7,7,,,,,,,,,,,,,,,,,,,,,,,,,,,,,,,,,,,,,,,,,,
,Page15_text,html.Page,4_11,false,false,false,false,false,true,false,false,false,false,true,false,false,false,false,true,true,false,false,false,false,false,false,true,false,true,false,true,true,false,false,false,false,false,false,true,true,false,true,false,false,false,false,false,false,false,false,false,12,24,,form submission,139888.93000000037,249831.60500001395,249824.804,249841.47,389730.4000000004,389730.7200000505,2020-10-28T09:56:34.022Z,389873.58,1603879466,incremental,final-task---level-of-agreeance,5f99360d0bbbdd5ca04d3b63,participant,hcpibiaokgt7wq5y,,,,,100,100,,6,,7,,7,7,7,7,7,7,7,7,7,7,7,,,,,,,,,,,,,,,,,,,,,,,,,,,,,,,,,,,,,,,,,
,Page16_emoji,html.Page,4_12,false,false,false,false,false,true,false,false,false,false,true,false,false,false,false,true,true,false,false,false,false,false,false,true,false,true,false,true,true,false,false,true,false,false,false,true,true,false,true,false,false,false,false,false,false,false,false,false,13,24,,form submission,457805.86000003625,389862.770000007,389856.914,389873.58,847679.4400000363,847679.9700000556,2020-10-28T10:04:11.983Z,847852.564,1603879466,incremental,final-task---level-of-agreeance,5f99360d0bbbdd5ca04d3b63,participant,hcpibiaokgt7wq5y,,,,,100,100,,4,,7,,7,7,7,7,7,7,7,7,7,7,7,7,,,,,,,,,,,,,,,,,,,,,,,,,,,,,,,,,,,,,,,,
,Page1_emoji,html.Page,4_13,false,true,false,false,false,true,false,false,false,false,true,false,false,false,false,true,true,false,false,false,false,false,false,true,false,true,false,true,true,false,false,true,false,false,false,true,true,false,true,false,false,false,false,false,false,false,false,false,14,24,,form submission,6869.876000041375,847839.5450000535,847835.898,847852.564,854722.4400000414,854722.8900000337,2020-10-28T10:04:19.026Z,854866.418,1603879466,incremental,final-task---level-of-agreeance,5f99360d0bbbdd5ca04d3b63,participant,hcpibiaokgt7wq5y,,,,,100,100,,7,,7,,7,7,7,7,7,7,7,7,7,7,7,7,7,,,,,,,,,,,,,,,,,,,,,,,,,,,,,,,,,,,,,,,
,Page1_text,html.Page,4_14,false,true,false,false,false,true,false,false,false,false,true,false,false,false,false,true,true,false,false,false,false,false,false,true,false,true,false,true,true,false,false,true,false,false,false,true,true,false,true,false,false,false,false,false,false,false,false,false,14,24,,skipped,,854803.3600000199,,,854722.4400000414,854803.7900000345,2020-10-28T10:04:19.107Z,854866.418,1603879466,incremental,final-task---level-of-agreeance,5f99360d0bbbdd5ca04d3b63,participant,hcpibiaokgt7wq5y,,,,,100,100,,,,7,,7,7,7,7,7,7,7,7,7,7,7,7,7,7,,,,,,,,,,,,,,,,,,,,,,,,,,,,,,,,,,,,,,
,Page2_text,html.Page,4_15,false,true,true,false,false,true,false,false,false,false,true,false,false,false,false,true,true,false,false,false,false,false,false,true,false,true,false,true,true,false,false,true,false,false,false,true,true,false,true,false,false,false,false,false,false,false,false,false,15,24,,form submission,6994.217000048258,854853.07500005,854849.752,854866.418,861860.6350000482,861861.2550000544,2020-10-28T10:04:26.164Z,862019.908,1603879466,incremental,final-task---level-of-agreeance,5f99360d0bbbdd5ca04d3b63,participant,hcpibiaokgt7wq5y,,,,,100,100,,,,7,,7,7,7,7,7,7,7,7,7,7,7,7,7,7,7,5,,,,,,,,,,,,,,,,,,,,,,,,,,,,,,,,,,,,
,Page15_emoji,html.Page,4_16,false,true,true,false,false,true,false,false,false,false,true,false,false,false,false,true,true,false,false,false,false,false,false,true,false,true,false,true,true,false,false,true,false,false,false,true,true,false,true,false,false,false,false,false,false,false,false,false,15,24,,skipped,,861942.8350000526,,,861860.6350000482,861943.0750000174,2020-10-28T10:04:26.246Z,862019.908,1603879466,incremental,final-task---level-of-agreeance,5f99360d0bbbdd5ca04d3b63,participant,hcpibiaokgt7wq5y,,,,,100,100,,,,7,,7,7,7,7,7,7,7,7,7,7,7,7,7,7,7,,7,,,,,,,,,,,,,,,,,,,,,,,,,,,,,,,,,,,
,Page10_emoji,html.Page,4_17,false,true,true,false,false,true,false,false,false,false,true,false,false,false,false,true,true,false,false,true,false,false,false,true,false,true,false,true,true,false,false,true,false,false,false,true,true,false,true,false,false,false,false,false,false,false,false,false,16,24,,form submission,23436.43700001319,862009.1000000248,862003.242,862019.908,885456.3450000132,885456.6700000432,2020-10-28T10:04:49.760Z,885784.54,1603879466,incremental,final-task---level-of-agreeance,5f99360d0bbbdd5ca04d3b63,participant,hcpibiaokgt7wq5y,,,,,100,100,,6,,7,,7,7,7,7,7,7,7,7,7,7,7,7,7,7,7,,7,7,,,,,,,,,,,,,,,,,,,,,,,,,,,,,,,,,,
,Page21_emoji,html.Page,4_18,false,true,true,false,false,true,false,false,false,false,true,false,false,false,false,true,true,false,false,true,false,false,false,true,false,true,false,true,true,false,false,true,false,false,false,true,true,false,true,false,false,true,false,false,false,false,false,false,17,24,,form submission,51390.37500003958,885773.5400000238,885767.874,885784.54,937174.9150000396,937175.3400000161,2020-10-28T10:05:41.480Z,937344.011,1603879466,incremental,final-task---level-of-agreeance,5f99360d0bbbdd5ca04d3b63,participant,hcpibiaokgt7wq5y,,,,,100,100,,7,,7,,7,7,7,7,7,7,7,7,7,7,7,7,7,7,7,,7,7,7,,,,,,,,,,,,,,,,,,,,,,,,,,,,,,,,,
,Page14_text,html.Page,4_19,false,true,true,false,false,true,false,false,false,false,true,false,false,false,false,true,true,false,false,true,false,false,false,true,false,true,false,true,true,false,false,true,false,false,false,true,true,false,true,false,false,true,false,false,false,false,false,false,17,24,,skipped,,937265.475000022,,,937174.9150000396,937266.025000019,2020-10-28T10:05:41.571Z,937344.011,1603879466,incremental,final-task---level-of-agreeance,5f99360d0bbbdd5ca04d3b63,participant,hcpibiaokgt7wq5y,,,,,100,100,,,,7,,7,7,7,7,7,7,7,7,7,7,7,7,7,7,7,,7,7,7,7,,,,,,,,,,,,,,,,,,,,,,,,,,,,,,,,
,Page22_emoji,html.Page,4_20,false,true,true,false,false,true,false,false,false,false,true,false,false,false,false,true,true,false,false,true,false,false,false,true,false,true,false,true,true,false,false,true,false,false,false,true,true,false,true,false,false,true,false,true,false,false,false,false,18,24,,form submission,19922.384000042337,937332.9800000065,937327.345,937344.011,957266.3950000424,957266.7200000142,2020-10-28T10:06:01.572Z,957361.478,1603879466,incremental,final-task---level-of-agreeance,5f99360d0bbbdd5ca04d3b63,participant,hcpibiaokgt7wq5y,,,,,100,100,,6,,7,,7,7,7,7,7,7,7,7,7,7,7,7,7,7,7,,7,7,7,7,7,,,,,,,,,,,,,,,,,,,,,,,,,,,,,,,
,Page11_text,html.Page,4_21,false,true,true,false,false,true,false,false,false,false,true,false,false,false,false,true,true,false,false,true,true,false,false,true,false,true,false,true,true,false,false,true,false,false,false,true,true,false,true,false,false,true,false,true,false,false,false,false,19,24,,form submission,44944.28700005554,957349.2300000507,957344.812,957361.478,1002305.7650000555,1002306.1300000409,2020-10-28T10:06:46.613Z,1002474.533,1603879466,incremental,final-task---level-of-agreeance,5f99360d0bbbdd5ca04d3b63,participant,hcpibiaokgt7wq5y,,,,,100,100,,5,,7,,7,7,7,7,7,7,7,7,7,7,7,7,7,7,7,,7,7,7,7,7,7,,,,,,,,,,,,,,,,,,,,,,,,,,,,,,
,Page19_emoji,html.Page,4_22,false,true,true,false,false,true,false,false,false,false,true,false,false,false,false,true,true,false,false,true,true,false,false,true,false,true,false,true,true,false,false,true,false,false,false,true,true,false,true,false,false,true,false,true,false,false,false,false,19,24,,skipped,,1002393.9050000045,,,1002305.7650000555,1002394.335000019,2020-10-28T10:06:46.701Z,1002474.533,1603879466,incremental,final-task---level-of-agreeance,5f99360d0bbbdd5ca04d3b63,participant,hcpibiaokgt7wq5y,,,,,100,100,,,,7,,7,7,7,7,7,7,7,7,7,7,7,7,7,7,7,,7,7,7,7,7,7,7,,,,,,,,,,,,,,,,,,,,,,,,,,,,,
,Page17_emoji,html.Page,4_23,false,true,true,false,false,true,false,false,false,false,true,false,false,false,false,true,true,false,false,true,true,false,false,true,false,true,false,true,true,false,false,true,false,true,false,true,true,false,true,false,false,true,false,true,false,false,false,false,20,24,,form submission,8424.69200000097,1002462.7300000284,1002457.867,1002474.533,1010899.225000001,1010899.5950000244,2020-10-28T10:06:55.206Z,1011115.178,1603879466,incremental,final-task---level-of-agreeance,5f99360d0bbbdd5ca04d3b63,participant,hcpibiaokgt7wq5y,,,,,100,100,,6,7,7,,7,7,7,7,7,7,7,7,7,7,7,7,7,7,7,,7,7,7,7,7,7,7,,,,,,,,,,,,,,,,,,,,,,,,,,,,,
,Page9_emoji,html.Page,4_24,false,true,true,false,false,true,false,false,false,false,true,false,false,false,false,true,true,false,false,true,true,false,false,true,false,true,false,true,true,false,false,true,false,true,false,true,true,false,true,false,false,true,false,true,false,false,false,false,20,24,,skipped,,1010969.3400000106,,,1010899.225000001,1010969.7700000252,2020-10-28T10:06:55.277Z,1011115.178,1603879466,incremental,final-task---level-of-agreeance,5f99360d0bbbdd5ca04d3b63,participant,hcpibiaokgt7wq5y,,,,,100,100,,,7,7,,7,7,7,7,7,7,7,7,7,7,7,7,7,7,7,,7,7,7,7,7,7,7,7,,,,,,,,,,,,,,,,,,,,,,,,,,,,
,Page22_text,html.Page,4_25,false,true,true,false,false,true,false,false,false,false,true,false,false,false,false,true,true,false,false,true,true,false,false,true,false,true,false,true,true,false,false,true,false,true,false,true,true,false,true,false,false,true,false,true,false,false,false,false,20,24,,skipped,,1011037.9150000517,,,1010899.225000001,1011038.3350000484,2020-10-28T10:06:55.345Z,1011115.178,1603879466,incremental,final-task---level-of-agreeance,5f99360d0bbbdd5ca04d3b63,participant,hcpibiaokgt7wq5y,,,,,100,100,,,7,7,,7,7,7,7,7,7,7,7,7,7,7,7,7,7,7,,7,7,7,7,7,7,7,7,7,,,,,,,,,,,,,,,,,,,,,,,,,,,
,Page7_text,html.Page,4_26,false,true,true,false,false,true,false,false,false,false,true,false,true,false,false,true,true,false,false,true,true,false,false,true,false,true,false,true,true,false,false,true,false,true,false,true,true,false,true,false,false,true,false,true,false,false,false,false,21,24,,form submission,14416.86699999997,1011102.3000000278,1011098.512,1011115.178,1025532.0449999999,1025532.4850000325,2020-10-28T10:07:09.840Z,1025618.95,1603879466,incremental,final-task---level-of-agreeance,5f99360d0bbbdd5ca04d3b63,participant,hcpibiaokgt7wq5y,,,,,100,100,,4,7,7,,7,7,7,7,7,7,7,7,7,7,7,7,7,7,7,,7,7,7,7,7,7,7,7,7,7,,,,,,,,,,,,,,,,,,,,,,,,,,
,Page4_emoji,html.Page,4_27,false,true,true,false,false,true,false,true,false,false,true,false,true,false,false,true,true,false,false,true,true,false,false,true,false,true,false,true,true,false,false,true,false,true,false,true,true,false,true,false,false,true,false,true,false,false,false,false,22,24,,form submission,12453.65000001411,1025606.1350000091,1025602.284,1025618.95,1038072.6000000141,1038073.1350000133,2020-10-28T10:07:22.381Z,1038160.172,1603879466,incremental,final-task---level-of-agreeance,5f99360d0bbbdd5ca04d3b63,participant,hcpibiaokgt7wq5y,,,,,100,100,,2,7,7,,7,7,7,7,7,7,7,7,7,7,7,7,7,7,7,,7,7,7,7,7,7,7,7,7,7,7,,,,,,,,,,,,,,,,,,,,,,,,,
,Page5_text,html.Page,4_28,false,true,true,false,false,true,false,true,true,false,true,false,true,false,false,true,true,false,false,true,true,false,false,true,false,true,false,true,true,false,false,true,false,true,false,true,true,false,true,false,false,true,false,true,false,false,false,false,23,24,,form submission,6740.238000001991,1038147.7700000396,1038143.506,1038160.172,1044900.410000002,1044900.7500000298,2020-10-28T10:07:29.208Z,1045059.896,1603879466,incremental,final-task---level-of-agreeance,5f99360d0bbbdd5ca04d3b63,participant,hcpibiaokgt7wq5y,,,,,100,100,,5,7,7,,7,7,7,7,7,7,7,7,7,7,7,7,7,7,7,,7,7,7,7,7,7,7,7,7,7,7,7,,,,,,,,,,,,,,,,,,,,,,,,
,Page12_text,html.Page,4_29,false,true,true,false,false,true,false,true,true,false,true,false,true,false,false,true,true,false,false,true,true,false,false,true,false,true,false,true,true,false,false,true,false,true,false,true,true,false,true,false,false,true,false,true,false,false,false,false,23,24,,skipped,,1044982.2000000277,,,1044900.410000002,1044982.6500000199,2020-10-28T10:07:29.290Z,1045059.896,1603879466,incremental,final-task---level-of-agreeance,5f99360d0bbbdd5ca04d3b63,participant,hcpibiaokgt7wq5y,,,,,100,100,,,7,7,,7,7,7,7,7,7,7,7,7,7,7,7,7,7,7,,7,7,7,7,7,7,7,7,7,7,7,7,7,,,,,,,,,,,,,,,,,,,,,,,
,Page24_text,html.Page,4_30,false,true,true,false,false,true,false,true,true,false,true,false,true,false,false,true,true,false,false,true,true,false,false,true,false,true,false,true,true,false,false,true,false,true,false,true,true,false,true,false,false,true,false,true,false,false,true,false,24,24,,form submission,17880.189000009326,1045048.6800000072,1045043.23,1045059.896,1062940.0850000093,1062940.5150000239,2020-10-28T10:07:47.249Z,1063234.098,1603879466,incremental,final-task---level-of-agreeance,5f99360d0bbbdd5ca04d3b63,participant,hcpibiaokgt7wq5y,,,,,100,100,,2,7,7,,7,7,7,7,7,7,7,7,7,7,7,7,7,7,7,,7,7,7,7,7,7,7,7,7,7,7,7,7,7,,,,,,,,,,,,,,,,,,,,,,
,Page20_emoji,html.Page,4_31,false,true,true,false,false,true,false,true,true,false,true,false,true,false,false,true,true,false,false,true,true,false,false,true,false,true,false,true,true,false,false,true,false,true,false,true,true,false,true,false,false,true,false,true,false,false,true,false,24,24,,skipped,,1063021.8250000034,,,1062940.0850000093,1063022.2900000517,2020-10-28T10:07:47.330Z,1063234.098,1603879466,incremental,final-task---level-of-agreeance,5f99360d0bbbdd5ca04d3b63,participant,hcpibiaokgt7wq5y,,,,,100,100,,,7,7,,7,7,7,7,7,7,7,7,7,7,7,7,7,7,7,,7,7,7,7,7,7,7,7,7,7,7,7,7,7,7,,,,,,,,,,,,,,,,,,,,,
,Page8_text,html.Page,4_32,false,true,true,false,false,true,false,true,true,false,true,false,true,false,false,true,true,false,false,true,true,false,false,true,false,true,false,true,true,false,false,true,false,true,false,true,true,false,true,false,false,true,false,true,false,false,true,false,24,24,,skipped,,1063088.480000035,,,1062940.0850000093,1063088.9150000294,2020-10-28T10:07:47.397Z,1063234.098,1603879466,incremental,final-task---level-of-agreeance,5f99360d0bbbdd5ca04d3b63,participant,hcpibiaokgt7wq5y,,,,,100,100,,,7,7,,7,7,7,7,7,7,7,7,7,7,7,7,7,7,7,,7,7,7,7,7,7,7,7,7,7,7,7,7,7,7,7,,,,,,,,,,,,,,,,,,,,
,Page16_text,html.Page,4_33,false,true,true,false,false,true,false,true,true,false,true,false,true,false,false,true,true,false,false,true,true,false,false,true,false,true,false,true,true,false,false,true,false,true,false,true,true,false,true,false,false,true,false,true,false,false,true,false,24,24,,skipped,,1063156.7150000483,,,1062940.0850000093,1063157.189999998,2020-10-28T10:07:47.465Z,1063234.098,1603879466,incremental,final-task---level-of-agreeance,5f99360d0bbbdd5ca04d3b63,participant,hcpibiaokgt7wq5y,,,,,100,100,,,7,7,,7,7,7,7,7,7,7,7,7,7,7,7,7,7,7,,7,7,7,7,7,7,7,7,7,7,7,7,7,7,7,7,7,,,,,,,,,,,,,,,,,,,
,Page23_text,html.Page,4_34,false,true,true,false,false,true,false,true,true,false,true,false,true,false,false,true,true,false,false,true,true,false,false,true,false,true,false,true,true,false,false,true,false,true,false,true,true,false,true,false,false,true,false,true,true,false,true,false,25,24,,form submission,14093.137000033399,1063221.985000011,1063217.432,1063234.098,1077327.2350000334,1077327.740000037,2020-10-28T10:08:01.636Z,1078208.738,1603879466,incremental,final-task---level-of-agreeance,5f99360d0bbbdd5ca04d3b63,participant,hcpibiaokgt7wq5y,,,,,100,100,,6,7,7,,7,7,7,7,7,7,7,7,7,7,7,7,7,7,7,,7,7,7,7,7,7,7,7,7,7,7,7,7,7,7,7,7,7,,,,,,,,,,,,,,,,,,
,Page17_text,html.Page,4_35,false,true,true,false,false,true,false,true,true,false,true,false,true,false,false,true,true,false,false,true,true,false,false,true,false,true,false,true,true,false,false,true,false,true,false,true,true,false,true,false,false,true,false,true,true,false,true,false,25,24,,skipped,,1077413.8000000385,,,1077327.2350000334,1077414.2750000465,2020-10-28T10:08:01.723Z,1078208.738,1603879466,incremental,final-task---level-of-agreeance,5f99360d0bbbdd5ca04d3b63,participant,hcpibiaokgt7wq5y,,,,,100,100,,,7,7,,7,7,7,7,7,7,7,7,7,7,7,7,7,7,7,,7,7,7,7,7,7,7,7,7,7,7,7,7,7,7,7,7,7,7,,,,,,,,,,,,,,,,,
,Page11_emoji,html.Page,4_36,false,true,true,false,false,true,false,true,true,false,true,false,true,false,false,true,true,false,false,true,true,false,false,true,false,true,false,true,true,false,false,true,false,true,false,true,true,false,true,false,false,true,false,true,true,false,true,false,25,24,,skipped,,1077480.3150000516,,,1077327.2350000334,1077480.7700000238,2020-10-28T10:08:01.789Z,1078208.738,1603879466,incremental,final-task---level-of-agreeance,5f99360d0bbbdd5ca04d3b63,participant,hcpibiaokgt7wq5y,,,,,100,100,,,7,7,,7,7,7,7,7,7,7,7,7,7,7,7,7,7,7,,7,7,7,7,7,7,7,7,7,7,7,7,7,7,7,7,7,7,7,7,,,,,,,,,,,,,,,,
,Page24_emoji,html.Page,4_37,false,true,true,false,false,true,false,true,true,false,true,false,true,false,false,true,true,false,false,true,true,false,false,true,false,true,false,true,true,false,false,true,false,true,false,true,true,false,true,false,false,true,false,true,true,false,true,false,25,24,,skipped,,1077548.0150000076,,,1077327.2350000334,1077548.46000002,2020-10-28T10:08:01.857Z,1078208.738,1603879466,incremental,final-task---level-of-agreeance,5f99360d0bbbdd5ca04d3b63,participant,hcpibiaokgt7wq5y,,,,,100,100,,,7,7,,7,7,7,7,7,7,7,7,7,7,7,7,7,7,7,,7,7,7,7,7,7,7,7,7,7,7,7,7,7,7,7,7,7,7,7,7,,,,,,,,,,,,,,,
,Page7_emoji,html.Page,4_38,false,true,true,false,false,true,false,true,true,false,true,false,true,false,false,true,true,false,false,true,true,false,false,true,false,true,false,true,true,false,false,true,false,true,false,true,true,false,true,false,false,true,false,true,true,false,true,false,25,24,,skipped,,1077613.1900000037,,,1077327.2350000334,1077613.6400000541,2020-10-28T10:08:01.922Z,1078208.738,1603879466,incremental,final-task---level-of-agreeance,5f99360d0bbbdd5ca04d3b63,participant,hcpibiaokgt7wq5y,,,,,100,100,,,7,7,,7,7,7,7,7,7,7,7,7,7,7,7,7,7,7,,7,7,7,7,7,7,7,7,7,7,7,7,7,7,7,7,7,7,7,7,7,7,,,,,,,,,,,,,,
,Page4_text,html.Page,4_39,false,true,true,false,false,true,false,true,true,false,true,false,true,false,false,true,true,false,false,true,true,false,false,true,false,true,false,true,true,false,false,true,false,true,false,true,true,false,true,false,false,true,false,true,true,false,true,false,25,24,,skipped,,1077663.675000018,,,1077327.2350000334,1077664.1300000483,2020-10-28T10:08:01.973Z,1078208.738,1603879466,incremental,final-task---level-of-agreeance,5f99360d0bbbdd5ca04d3b63,participant,hcpibiaokgt7wq5y,,,,,100,100,7,,7,7,,7,7,7,7,7,7,7,7,7,7,7,7,7,7,7,,7,7,7,7,7,7,7,7,7,7,7,7,7,7,7,7,7,7,7,7,7,7,,,,,,,,,,,,,,
,Page21_text,html.Page,4_40,false,true,true,false,false,true,false,true,true,false,true,false,true,false,false,true,true,false,false,true,true,false,false,true,false,true,false,true,true,false,false,true,false,true,false,true,true,false,true,false,false,true,false,true,true,false,true,false,25,24,,skipped,,1077731.3950000098,,,1077327.2350000334,1077731.85500002,2020-10-28T10:08:02.040Z,1078208.738,1603879466,incremental,final-task---level-of-agreeance,5f99360d0bbbdd5ca04d3b63,participant,hcpibiaokgt7wq5y,,,,,100,100,7,,7,7,,7,7,7,7,7,7,7,7,7,7,7,7,7,7,7,,7,7,7,7,7,7,7,7,7,7,7,7,7,7,7,7,7,7,7,7,7,7,7,,,,,,,,,,,,,
,Page23_emoji,html.Page,4_41,false,true,true,false,false,true,false,true,true,false,true,false,true,false,false,true,true,false,false,true,true,false,false,true,false,true,false,true,true,false,false,true,false,true,false,true,true,false,true,false,false,true,false,true,true,false,true,false,25,24,,skipped,,1077796.1500000092,,,1077327.2350000334,1077796.6050000396,2020-10-28T10:08:02.105Z,1078208.738,1603879466,incremental,final-task---level-of-agreeance,5f99360d0bbbdd5ca04d3b63,participant,hcpibiaokgt7wq5y,,,,,100,100,7,,7,7,,7,7,7,7,7,7,7,7,7,7,7,7,7,7,7,,7,7,7,7,7,7,7,7,7,7,7,7,7,7,7,7,7,7,7,7,7,7,7,7,,,,,,,,,,,,
,Page6_emoji,html.Page,4_42,false,true,true,false,false,true,false,true,true,false,true,false,true,false,false,true,true,false,false,true,true,false,false,true,false,true,false,true,true,false,false,true,false,true,false,true,true,false,true,false,false,true,false,true,true,false,true,false,25,24,,skipped,,1077862.6800000202,,,1077327.2350000334,1077863.1350000505,2020-10-28T10:08:02.172Z,1078208.738,1603879466,incremental,final-task---level-of-agreeance,5f99360d0bbbdd5ca04d3b63,participant,hcpibiaokgt7wq5y,,,,,100,100,7,,7,7,,7,7,7,7,7,7,7,7,7,7,7,7,7,7,7,,7,7,7,7,7,7,7,7,7,7,7,7,7,7,7,7,7,7,7,7,7,7,7,7,7,,,,,,,,,,,
,Page2_emoji,html.Page,4_43,false,true,true,false,false,true,false,true,true,false,true,false,true,false,false,true,true,false,false,true,true,false,false,true,false,true,false,true,true,false,false,true,false,true,false,true,true,false,true,false,false,true,false,true,true,false,true,false,25,24,,skipped,,1077928.895000019,,,1077327.2350000334,1077929.3550000293,2020-10-28T10:08:02.238Z,1078208.738,1603879466,incremental,final-task---level-of-agreeance,5f99360d0bbbdd5ca04d3b63,participant,hcpibiaokgt7wq5y,,,,,100,100,7,,7,7,,7,7,7,7,7,7,7,7,7,7,7,7,7,7,7,,7,7,7,7,7,7,7,7,7,7,7,7,7,7,7,7,7,7,7,7,7,7,7,7,7,7,,,,,,,,,,
,Page5_emoji,html.Page,4_44,false,true,true,false,false,true,false,true,true,false,true,false,true,false,false,true,true,false,false,true,true,false,false,true,false,true,false,true,true,false,false,true,false,true,false,true,true,false,true,false,false,true,false,true,true,false,true,false,25,24,,skipped,,1077996.7500000494,,,1077327.2350000334,1077997.2100000014,2020-10-28T10:08:02.306Z,1078208.738,1603879466,incremental,final-task---level-of-agreeance,5f99360d0bbbdd5ca04d3b63,participant,hcpibiaokgt7wq5y,,,,,100,100,7,,7,7,,7,7,7,7,7,7,7,7,7,7,7,7,7,7,7,,7,7,7,7,7,7,7,7,7,7,7,7,7,7,7,7,7,7,7,7,7,7,7,7,7,7,7,,,,,,,,,
,Page3_text,html.Page,4_45,false,true,true,false,false,true,false,true,true,false,true,false,true,false,false,true,true,false,false,true,true,false,false,true,false,true,false,true,true,false,false,true,false,true,false,true,true,false,true,false,false,true,false,true,true,false,true,false,25,24,,skipped,,1078063.5600000387,,,1077327.2350000334,1078064.0250000288,2020-10-28T10:08:02.372Z,1078208.738,1603879466,incremental,final-task---level-of-agreeance,5f99360d0bbbdd5ca04d3b63,participant,hcpibiaokgt7wq5y,,,,,100,100,7,,7,7,,7,7,7,7,7,7,7,7,7,7,7,7,7,7,7,,7,7,7,7,7,7,7,7,7,7,7,7,7,7,7,7,7,7,7,7,7,7,7,7,7,7,7,7,,,,,,,,
,Page10_text,html.Page,4_46,false,true,true,false,false,true,false,true,true,false,true,false,true,false,false,true,true,false,false,true,true,false,false,true,false,true,false,true,true,false,false,true,false,true,false,true,true,false,true,false,false,true,false,true,true,false,true,false,25,24,,skipped,,1078130.7850000449,,,1077327.2350000334,1078131.250000035,2020-10-28T10:08:02.440Z,1078208.738,1603879466,incremental,final-task---level-of-agreeance,5f99360d0bbbdd5ca04d3b63,participant,hcpibiaokgt7wq5y,,,,,100,100,7,,7,7,,7,7,7,7,7,7,7,7,7,7,7,7,7,7,7,,7,7,7,7,7,7,7,7,7,7,7,7,7,7,7,7,7,7,7,7,7,7,7,7,7,7,7,7,7,,,,,,,
,Page13_text,html.Page,4_47,false,true,true,false,false,true,false,true,true,false,true,false,true,false,false,true,true,false,false,true,true,false,false,true,false,true,false,true,true,false,false,true,false,true,false,true,true,false,true,false,false,true,false,true,true,false,true,false,25,24,,skipped,,1078197.2600000445,,,1077327.2350000334,1078197.9050000082,2020-10-28T10:08:02.506Z,1078208.738,1603879466,incremental,final-task---level-of-agreeance,5f99360d0bbbdd5ca04d3b63,participant,hcpibiaokgt7wq5y,,,,,100,100,7,,7,7,,7,7,7,7,7,7,7,7,7,7,7,7,7,7,7,,7,7,7,7,7,7,7,7,7,7,7,7,7,7,7,7,7,7,7,7,7,7,7,7,7,7,7,7,7,7,,,,,,
,Sequence,flow.Sequence,4,false,true,true,false,false,true,false,true,true,false,true,false,true,false,false,true,true,false,false,true,true,false,false,true,false,true,false,true,true,false,false,true,false,true,false,true,true,false,true,false,false,true,false,true,true,false,true,false,25,24,,completion,1044488.9100000334,32745.165000029374,32821.659,32838.325,1077327.2350000334,1078201.8600000301,2020-10-28T10:08:02.510Z,1078208.738,1603879466,incremental,final-task---level-of-agreeance,5f99360d0bbbdd5ca04d3b63,participant,hcpibiaokgt7wq5y,,,,,100,100,7,,7,7,,7,7,7,7,7,7,7,7,7,7,7,7,7,7,7,,7,7,7,7,7,7,7,7,7,7,7,7,7,7,7,7,7,7,7,7,7,7,7,7,7,7,7,7,7,7,,,,,,
,Page,html.Page,5,false,true,true,false,false,true,false,true,true,false,true,false,true,false,false,true,true,false,false,true,true,false,false,true,false,true,false,true,true,false,false,true,false,true,false,true,true,false,true,false,false,true,false,true,true,false,true,false,25,24,,form submission,10306.577000026125,1078204.1150000296,1078192.072,1078208.738,1088515.315000026,1088515.8800000208,2020-10-28T10:08:12.825Z,1088536.915,1603879466,incremental,final-task---level-of-agreeance,5f99360d0bbbdd5ca04d3b63,participant,hcpibiaokgt7wq5y,,,,,100,100,7,,7,7,,7,7,7,7,7,7,7,7,7,7,7,7,7,7,7,,7,7,7,7,7,7,7,7,7,7,7,7,7,7,7,7,7,7,7,7,7,7,7,7,7,7,7,7,7,7,24,168,24,168,7,7
,root,flow.Sequence,,false,true,true,false,false,true,false,true,true,false,true,false,true,false,false,true,true,false,false,true,true,false,false,true,false,true,false,true,true,false,false,true,false,true,false,true,true,false,true,false,false,true,false,true,true,false,true,false,25,24,,completion,1087806.562000026,695.5350000062026,692.087,708.753,1088515.315000026,1088518.3800000232,2020-10-28T10:08:12.827Z,1088536.915,1603879466,incremental,final-task---level-of-agreeance,5f99360d0bbbdd5ca04d3b63,participant,hcpibiaokgt7wq5y,,,,,100,100,7,,7,7,,7,7,7,7,7,7,7,7,7,7,7,7,7,7,7,,7,7,7,7,7,7,7,7,7,7,7,7,7,7,7,7,7,7,7,7,7,7,7,7,7,7,7,7,7,7,24,168,24,168,7,7
"{""labjs_version"":""20.1.1"",""labjs_build"":{""flavor"":""production"",""commit"":""c48ac4ada3769e8d34489594ab03097d5f256ac7""},""location"":""https://open-lab.online/test/final-task---level-of-agreeance/5f993f660bbbdd5ca04d3be1?fbclid=IwAR2OtA9sVabEaZrSP9-QuhpsYpy_wGjcsmljeLY88MkO85k2xNBjv9JBWGE"",""userAgent"":""Mozilla/5.0 (iPhone; CPU iPhone OS 13_6_1 like Mac OS X) AppleWebKit/605.1.15 (KHTML, like Gecko) Mobile/15E148 [FBAN/FBIOS;FBDV/iPhone9,3;FBMD/iPhone;FBSN/iOS;FBSV/13.6.1;FBSS/2;FBID/phone;FBLC/da_DK;FBOP/5]"",""platform"":""iPhone"",""language"":""da"",""locale"":""da"",""timeZone"":""Europe/Copenhagen"",""timezoneOffset"":-60,""screen_width"":375,""screen_height"":667,""scroll_width"":980,""scroll_height"":1355,""window_innerWidth"":980,""window_innerHeight"":1403,""devicePixelRatio"":2}",Information letter,html.Page,0,false,false,false,false,false,false,false,false,false,false,false,false,false,false,false,false,false,false,false,false,false,false,false,false,false,false,false,false,false,false,false,false,false,false,false,false,false,false,false,false,false,false,false,false,false,false,false,false,1,24,,form submission,2610,1383,1398,1760,4370,4378,2020-10-28T09:52:42.890Z,4431,1603878911,incremental,final-task---level-of-agreeance,5f99360d0bbbdd5ca04d3b63,participant,hcpibiaokgt800du,,,,[object Object],103,207,,,,,,,,,,,,,,,,,,,,,,,,,,,,,,,,,,,,,,,,,,,,,,,,,,,,,,,,,
,Informed consent,html.Page,1,false,false,false,false,false,false,false,false,false,false,false,false,false,false,false,false,false,false,false,false,false,false,false,false,false,false,false,false,false,false,false,false,false,false,false,false,false,false,false,false,false,false,false,false,false,false,false,false,1,24,,form submission,2924,4379,4400,4431,7355,7357,2020-10-28T09:52:45.869Z,7391,1603878911,incremental,final-task---level-of-agreeance,5f99360d0bbbdd5ca04d3b63,participant,hcpibiaokgt800du,undefined,,,,100,100,,,,,,,,,,,,,,,,,,,,,,,,,,,,,,,,,,,,,,,,,,,,,,,,,,,,,,,,,
,Questions about participant,html.Page,2,false,false,false,false,false,false,false,false,false,false,false,false,false,false,false,false,false,false,false,false,false,false,false,false,false,false,false,false,false,false,false,false,false,false,false,false,false,false,false,false,false,false,false,false,false,false,false,false,1,24,,form submission,4923,7359,7372,7391,12314,12318,2020-10-28T09:52:50.830Z,12351,1603878911,incremental,final-task---level-of-agreeance,5f99360d0bbbdd5ca04d3b63,participant,hcpibiaokgt800du,,102,201,,100,100,,,,,,,,,,,,,,,,,,,,,,,,,,,,,,,,,,,,,,,,,,,,,,,,,,,,,,,,,
,Information about the experiment,html.Page,3,false,false,false,false,false,false,false,false,false,false,false,false,false,false,false,false,false,false,false,false,false,false,false,false,false,false,false,false,false,false,false,false,false,false,false,false,false,false,false,false,false,false,false,false,false,false,false,false,1,24,,form submission,2489,12321,12338,12351,14840,14842,2020-10-28T09:52:53.355Z,,1603878911,incremental,final-task---level-of-agreeance,5f99360d0bbbdd5ca04d3b63,participant,hcpibiaokgt800du,,,,,100,100,,,,,,,,,,,,,,,,,,,,,,,,,,,,,,,,,,,,,,,,,,,,,,,,,,,,,,,,,
,Page8_emoji,html.Page,4_0,false,false,false,false,false,false,false,false,false,false,false,false,false,false,false,true,false,false,false,false,false,false,false,false,false,false,false,false,false,false,false,false,false,false,false,false,false,false,false,false,false,false,false,false,false,false,false,false,2,24,,form submission,17559,15229.000000000002,15238,15249,32808,32811,2020-10-28T09:53:11.323Z,33359,1603878911,incremental,final-task---level-of-agreeance,5f99360d0bbbdd5ca04d3b63,participant,hcpibiaokgt800du,,,,,100,100,,2,,,,,,,7,,,,,,,,,,,,,,,,,,,,,,,,,,,,,,,,,,,,,,,,,,,,,,,,
,Page22_emoji,html.Page,4_1,false,false,false,false,false,false,false,false,false,false,false,false,false,false,false,true,false,false,false,false,false,false,false,false,false,false,false,false,false,false,false,false,false,false,false,false,false,false,false,false,false,false,false,true,false,false,false,false,3,24,,form submission,147789,33326,33340,33359,181148,181171,2020-10-28T10:01:24.856Z,181664,1603878911,incremental,final-task---level-of-agreeance,5f99360d0bbbdd5ca04d3b63,participant,hcpibiaokgt800du,,,,,100,100,,3,,,,,,,7,,,,,,,,,,,,,,,,,7,,,,,,,,,,,,,,,,,,,,,,,,,,,,,,,
,Page23_emoji,html.Page,4_2,false,false,false,false,false,false,false,false,false,false,false,false,false,false,false,true,false,false,false,false,false,false,false,false,false,false,false,false,false,false,false,false,false,false,false,false,false,false,false,false,false,false,false,true,false,true,false,false,4,24,,form submission,33721,181618,181637,181664,215385,215388,2020-10-28T10:01:59.073Z,215833,1603878911,incremental,final-task---level-of-agreeance,5f99360d0bbbdd5ca04d3b63,participant,hcpibiaokgt800du,,,,,100,100,,1,,,,,,,7,,,,,,,,,,,,,,,,,7,,,,,,,,,,,,,,,,,,,7,,,,,,,,,,,,
,Page13_text,html.Page,4_3,false,false,false,false,false,false,false,false,false,false,false,false,false,false,false,true,false,false,false,false,false,false,false,false,true,false,false,false,false,false,false,false,false,false,false,false,false,false,false,false,false,false,false,true,false,true,false,false,5,24,,form submission,27998.00000000003,215793,215810,215833,243831.00000000003,243833,2020-10-28T10:02:27.519Z,244304,1603878911,incremental,final-task---level-of-agreeance,5f99360d0bbbdd5ca04d3b63,participant,hcpibiaokgt800du,,,,,100,100,,6,,,,,,,7,,,,,,,,,,,,,,,,,7,,,,,,,,,,,,,,,,,,,7,,,,,,7,,,,,,
,Page12_emoji,html.Page,4_4,false,false,false,false,false,false,false,false,false,false,false,false,false,false,false,true,false,false,false,false,false,false,false,true,true,false,false,false,false,false,false,false,false,false,false,false,false,false,false,false,false,false,false,true,false,true,false,false,6,24,,form submission,37460,244262,244279,244304,281764,281769,2020-10-28T10:03:05.455Z,282180,1603878911,incremental,final-task---level-of-agreeance,5f99360d0bbbdd5ca04d3b63,participant,hcpibiaokgt800du,,,,,100,100,,6,,,,,,,7,7,,,,,,,,,,,,,,,,7,,,,,,,,,,,,,,,,,,,7,,,,,,7,,,,,,
,Page16_emoji,html.Page,4_5,false,false,false,false,false,false,false,false,false,false,false,false,false,false,false,true,false,false,false,false,false,false,false,true,true,false,false,false,false,false,false,true,false,false,false,false,false,false,false,false,false,false,false,true,false,true,false,false,7,24,,form submission,42392,282156,282165,282180,324572,324576,2020-10-28T10:03:48.262Z,324971,1603878911,incremental,final-task---level-of-agreeance,5f99360d0bbbdd5ca04d3b63,participant,hcpibiaokgt800du,,,,,100,100,,2,,,,,,,7,7,,,,,,,7,,,,,,,,,7,,,,,,,,,,,,,,,,,,,7,,,,,,7,,,,,,
,Page2_text,html.Page,4_6,false,false,true,false,false,false,false,false,false,false,false,false,false,false,false,true,false,false,false,false,false,false,false,true,true,false,false,false,false,false,false,true,false,false,false,false,false,false,false,false,false,false,false,true,false,true,false,false,8,24,,form submission,12055,324924.00000000006,324943,324971,337026,337027,2020-10-28T10:04:00.714Z,337427,1603878911,incremental,final-task---level-of-agreeance,5f99360d0bbbdd5ca04d3b63,participant,hcpibiaokgt800du,,,,,100,100,,,,,,,,,7,7,,,,,,,7,,,7,6,,,,,7,,,,,,,,,,,,,,,,,,,7,,,,,,7,,,,,,
,Page17_emoji,html.Page,4_7,false,false,true,false,false,false,false,false,false,false,false,false,false,false,false,true,false,false,false,false,false,false,false,true,true,false,false,false,false,false,false,true,false,true,false,false,false,false,false,false,false,false,false,true,false,true,false,false,9,24,,form submission,23908,337387,337402,337427,361335,361338,2020-10-28T10:04:25.025Z,361935,1603878911,incremental,final-task---level-of-agreeance,5f99360d0bbbdd5ca04d3b63,participant,hcpibiaokgt800du,,,,,100,100,,6,7,,,,,,7,7,,,,,,,7,,,7,,,,,,7,,,,,,,,,,,,,,,,,,,7,,,,,,7,,,,,,
,Page2_emoji,html.Page,4_8,false,false,true,false,false,false,false,false,false,false,false,false,false,false,false,true,false,false,false,false,false,false,false,true,true,false,false,false,false,false,false,true,false,true,false,false,false,false,false,false,false,false,false,true,false,true,false,false,9,24,,skipped,,361766,,,361335,361769,2020-10-28T10:04:25.456Z,361935,1603878911,incremental,final-task---level-of-agreeance,5f99360d0bbbdd5ca04d3b63,participant,hcpibiaokgt800du,,,,,100,100,,,7,,,,,,7,7,,,,,,,7,,,7,,,,,,7,,,,,,,,,,,,,,,,,,,7,,7,,,,7,,,,,,
